"success","trial_type","trial_index","time_elapsed","internal_node_id","subject","age","sex","date","instQ1","instQ2","instQ3","instQ4","instQ5","totalInstQ","gender","strategy","comments","DASS1_s","DASS2_a","DASS3_d","DASS4_a","DASS5_d","DASS6_s","DASS7_a","DASS8_s","DASS9_a","DASS10_d","DASS11_s","DASS12_s","DASS13_d","DASS14_s","DASS15_a","DASS16_d","DASS17_d","DASS18_s","DASS19_a","DASS20_a","DASS21_d","BB1","BB2","BB3","BB4","BB5","BB6","BB7","BB8","BB9","BB10","BB11","BB12","BB13","BB14","BB15","BB16","BB17","BB18","BB19","BB20","BB21","BB22","BB23","BB24","NFC1","NFC2","NFC3","NFC4","NFC5","NFC6","NFC7","NFC8","NFC9","NFC10","NFC11","NFC12","NFC13","NFC14","NFC15","NFC16","NFC17","NFC18","rt","stimulus","key_press","npress","isDataTrial","block","trialinblock","common","odd","oddidx","correct_ans","accuracy","totalTokens","timestamp","responses","question_order","showprog","blocklen","trial","progress","reward","timedout"
"true","fullscreen","0","5566","0.0-0.0","021","19","F","1659114128625","q","q","Only if I get the answer right","Nothing","A fixed time limit","4","female","No","I felt my fingers were out of control after 1-2 rounds, and I found that it would be better if I rest for a few seconds instead of starting next round immediately.","0","0","0","2","1","2","1","1","3","0","0","1","0","1","0","0","0","1","2","0","0","0","2","2","0","1","2","0","3","3","2","1","2","0","1","2","2","3","0","1","1","2","1","2","0","1","1","3","4","2","2","3","3","4","1","2","1","0","1","2","3","3","2","","","","","","","","","","","","","","","","","","","","","",""
"","image-keyboard-response","1","97268","0.0-1.0-0.0","021","19","F","1659114128625","q","q","Only if I get the answer right","Nothing","A fixed time limit","4","female","No","I felt my fingers were out of control after 1-2 rounds, and I found that it would be better if I rest for a few seconds instead of starting next round immediately.","0","0","0","2","1","2","1","1","3","0","0","1","0","1","0","0","0","1","2","0","0","0","2","2","0","1","2","0","3","3","2","1","2","0","1","2","2","3","0","1","1","2","1","2","0","1","1","3","4","2","2","3","3","4","1","2","1","0","1","2","3","3","2","91658.89999997616","static/images/instructions/Slide1.png","39","","","","","","","","","","","","","","","","","","",""
"","image-keyboard-response","2","113367","0.0-1.1-0.1","021","19","F","1659114128625","q","q","Only if I get the answer right","Nothing","A fixed time limit","4","female","No","I felt my fingers were out of control after 1-2 rounds, and I found that it would be better if I rest for a few seconds instead of starting next round immediately.","0","0","0","2","1","2","1","1","3","0","0","1","0","1","0","0","0","1","2","0","0","0","2","2","0","1","2","0","3","3","2","1","2","0","1","2","2","3","0","1","1","2","1","2","0","1","1","3","4","2","2","3","3","4","1","2","1","0","1","2","3","3","2","16097.199999928474","static/images/instructions/Slide2.png","39","","","","","","","","","","","","","","","","","","",""
"","image-keyboard-response","3","123879","0.0-1.2-0.2","021","19","F","1659114128625","q","q","Only if I get the answer right","Nothing","A fixed time limit","4","female","No","I felt my fingers were out of control after 1-2 rounds, and I found that it would be better if I rest for a few seconds instead of starting next round immediately.","0","0","0","2","1","2","1","1","3","0","0","1","0","1","0","0","0","1","2","0","0","0","2","2","0","1","2","0","3","3","2","1","2","0","1","2","2","3","0","1","1","2","1","2","0","1","1","3","4","2","2","3","3","4","1","2","1","0","1","2","3","3","2","10494.399999976158","static/images/instructions/Slide3.png","39","","","","","","","","","","","","","","","","","","",""
"","image-keyboard-response","4","129943","0.0-1.3-0.3","021","19","F","1659114128625","q","q","Only if I get the answer right","Nothing","A fixed time limit","4","female","No","I felt my fingers were out of control after 1-2 rounds, and I found that it would be better if I rest for a few seconds instead of starting next round immediately.","0","0","0","2","1","2","1","1","3","0","0","1","0","1","0","0","0","1","2","0","0","0","2","2","0","1","2","0","3","3","2","1","2","0","1","2","2","3","0","1","1","2","1","2","0","1","1","3","4","2","2","3","3","4","1","2","1","0","1","2","3","3","2","6063.200000047684","static/images/instructions/Slide4.png","39","","","","","","","","","","","","","","","","","","",""
"","image-keyboard-response","5","145551","0.0-1.4-0.4","021","19","F","1659114128625","q","q","Only if I get the answer right","Nothing","A fixed time limit","4","female","No","I felt my fingers were out of control after 1-2 rounds, and I found that it would be better if I rest for a few seconds instead of starting next round immediately.","0","0","0","2","1","2","1","1","3","0","0","1","0","1","0","0","0","1","2","0","0","0","2","2","0","1","2","0","3","3","2","1","2","0","1","2","2","3","0","1","1","2","1","2","0","1","1","3","4","2","2","3","3","4","1","2","1","0","1","2","3","3","2","15607.299999952316","static/images/instructions/Slide5.png","39","","","","","","","","","","","","","","","","","","",""
"","image-keyboard-response","6","150894","0.0-1.5-0.5","021","19","F","1659114128625","q","q","Only if I get the answer right","Nothing","A fixed time limit","4","female","No","I felt my fingers were out of control after 1-2 rounds, and I found that it would be better if I rest for a few seconds instead of starting next round immediately.","0","0","0","2","1","2","1","1","3","0","0","1","0","1","0","0","0","1","2","0","0","0","2","2","0","1","2","0","3","3","2","1","2","0","1","2","2","3","0","1","1","2","1","2","0","1","1","3","4","2","2","3","3","4","1","2","1","0","1","2","3","3","2","5342.899999976158","static/images/instructions/Slide6.png","39","","","","","","","","","","","","","","","","","","",""
"","image-keyboard-response","7","164086","0.0-1.6-0.6","021","19","F","1659114128625","q","q","Only if I get the answer right","Nothing","A fixed time limit","4","female","No","I felt my fingers were out of control after 1-2 rounds, and I found that it would be better if I rest for a few seconds instead of starting next round immediately.","0","0","0","2","1","2","1","1","3","0","0","1","0","1","0","0","0","1","2","0","0","0","2","2","0","1","2","0","3","3","2","1","2","0","1","2","2","3","0","1","1","2","1","2","0","1","1","3","4","2","2","3","3","4","1","2","1","0","1","2","3","3","2","13191.799999952316","static/images/instructions/Slide7.png","39","","","","","","","","","","","","","","","","","","",""
"","html-keyboard-response","8","165246","0.0-2.0-0.0","021","19","F","1659114128625","q","q","Only if I get the answer right","Nothing","A fixed time limit","4","female","No","I felt my fingers were out of control after 1-2 rounds, and I found that it would be better if I rest for a few seconds instead of starting next round immediately.","0","0","0","2","1","2","1","1","3","0","0","1","0","1","0","0","0","1","2","0","0","0","2","2","0","1","2","0","3","3","2","1","2","0","1","2","2","3","0","1","1","2","1","2","0","1","1","3","4","2","2","3","3","4","1","2","1","0","1","2","3","3","2","1158.7999999523163","<br><br><br><br><table><tr><td><img src=static/images/oddball_up.png></td><td><img src=static/images/oddball_up.png></td><td><img src=static/images/oddball_down.png></td></tr></table>","69","1","","","","","","","","","","","","","","","","","",""
"","html-keyboard-response","9","167755","0.0-2.0-1.0","021","19","F","1659114128625","q","q","Only if I get the answer right","Nothing","A fixed time limit","4","female","No","I felt my fingers were out of control after 1-2 rounds, and I found that it would be better if I rest for a few seconds instead of starting next round immediately.","0","0","0","2","1","2","1","1","3","0","0","1","0","1","0","0","0","1","2","0","0","0","2","2","0","1","2","0","3","3","2","1","2","0","1","2","2","3","0","1","1","2","1","2","0","1","1","3","4","2","2","3","3","4","1","2","1","0","1","2","3","3","2","null","<div style=""font-size:75px;""><b>Correct</b></div>","null","","","","","","","","","","","","","","","","","","",""
"","html-keyboard-response","10","168759","0.0-2.0-2.0","021","19","F","1659114128625","q","q","Only if I get the answer right","Nothing","A fixed time limit","4","female","No","I felt my fingers were out of control after 1-2 rounds, and I found that it would be better if I rest for a few seconds instead of starting next round immediately.","0","0","0","2","1","2","1","1","3","0","0","1","0","1","0","0","0","1","2","0","0","0","2","2","0","1","2","0","3","3","2","1","2","0","1","2","2","3","0","1","1","2","1","2","0","1","1","3","4","2","2","3","3","4","1","2","1","0","1","2","3","3","2","1158.7999999523163","","e","","true","practice","0","up","down","2","e","1","0","1659114297702","","","","","","","",""
"","html-keyboard-response","11","169678","0.0-2.1-0.1","021","19","F","1659114128625","q","q","Only if I get the answer right","Nothing","A fixed time limit","4","female","No","I felt my fingers were out of control after 1-2 rounds, and I found that it would be better if I rest for a few seconds instead of starting next round immediately.","0","0","0","2","1","2","1","1","3","0","0","1","0","1","0","0","0","1","2","0","0","0","2","2","0","1","2","0","3","3","2","1","2","0","1","2","2","3","0","1","1","2","1","2","0","1","1","3","4","2","2","3","3","4","1","2","1","0","1","2","3","3","2","918.6999999284744","<br><br><br><br><table><tr><td><img src=static/images/oddball_down.png></td><td><img src=static/images/oddball_up.png></td><td><img src=static/images/oddball_up.png></td></tr></table>","81","1","","","","","","","","","","","","","","","","","",""
"","html-keyboard-response","12","172191","0.0-2.1-1.1","021","19","F","1659114128625","q","q","Only if I get the answer right","Nothing","A fixed time limit","4","female","No","I felt my fingers were out of control after 1-2 rounds, and I found that it would be better if I rest for a few seconds instead of starting next round immediately.","0","0","0","2","1","2","1","1","3","0","0","1","0","1","0","0","0","1","2","0","0","0","2","2","0","1","2","0","3","3","2","1","2","0","1","2","2","3","0","1","1","2","1","2","0","1","1","3","4","2","2","3","3","4","1","2","1","0","1","2","3","3","2","null","<div style=""font-size:75px;""><b>Correct</b></div>","null","","","","","","","","","","","","","","","","","","",""
"","html-keyboard-response","13","173197","0.0-2.1-2.1","021","19","F","1659114128625","q","q","Only if I get the answer right","Nothing","A fixed time limit","4","female","No","I felt my fingers were out of control after 1-2 rounds, and I found that it would be better if I rest for a few seconds instead of starting next round immediately.","0","0","0","2","1","2","1","1","3","0","0","1","0","1","0","0","0","1","2","0","0","0","2","2","0","1","2","0","3","3","2","1","2","0","1","2","2","3","0","1","1","2","1","2","0","1","1","3","4","2","2","3","3","4","1","2","1","0","1","2","3","3","2","918.6999999284744","","q","","true","practice","1","up","down","0","q","1","0","1659114302140","","","","","","","",""
"","html-keyboard-response","14","173798","0.0-2.2-0.2","021","19","F","1659114128625","q","q","Only if I get the answer right","Nothing","A fixed time limit","4","female","No","I felt my fingers were out of control after 1-2 rounds, and I found that it would be better if I rest for a few seconds instead of starting next round immediately.","0","0","0","2","1","2","1","1","3","0","0","1","0","1","0","0","0","1","2","0","0","0","2","2","0","1","2","0","3","3","2","1","2","0","1","2","2","3","0","1","1","2","1","2","0","1","1","3","4","2","2","3","3","4","1","2","1","0","1","2","3","3","2","600.5999999046326","<br><br><br><br><table><tr><td><img src=static/images/oddball_up.png></td><td><img src=static/images/oddball_up.png></td><td><img src=static/images/oddball_down.png></td></tr></table>","69","1","","","","","","","","","","","","","","","","","",""
"","html-keyboard-response","15","176299","0.0-2.2-1.2","021","19","F","1659114128625","q","q","Only if I get the answer right","Nothing","A fixed time limit","4","female","No","I felt my fingers were out of control after 1-2 rounds, and I found that it would be better if I rest for a few seconds instead of starting next round immediately.","0","0","0","2","1","2","1","1","3","0","0","1","0","1","0","0","0","1","2","0","0","0","2","2","0","1","2","0","3","3","2","1","2","0","1","2","2","3","0","1","1","2","1","2","0","1","1","3","4","2","2","3","3","4","1","2","1","0","1","2","3","3","2","null","<div style=""font-size:75px;""><b>Correct</b></div>","null","","","","","","","","","","","","","","","","","","",""
"","html-keyboard-response","16","177306","0.0-2.2-2.2","021","19","F","1659114128625","q","q","Only if I get the answer right","Nothing","A fixed time limit","4","female","No","I felt my fingers were out of control after 1-2 rounds, and I found that it would be better if I rest for a few seconds instead of starting next round immediately.","0","0","0","2","1","2","1","1","3","0","0","1","0","1","0","0","0","1","2","0","0","0","2","2","0","1","2","0","3","3","2","1","2","0","1","2","2","3","0","1","1","2","1","2","0","1","1","3","4","2","2","3","3","4","1","2","1","0","1","2","3","3","2","600.5999999046326","","e","","true","practice","2","up","down","2","e","1","0","1659114306249","","","","","","","",""
"","html-keyboard-response","17","177839","0.0-2.3-0.3","021","19","F","1659114128625","q","q","Only if I get the answer right","Nothing","A fixed time limit","4","female","No","I felt my fingers were out of control after 1-2 rounds, and I found that it would be better if I rest for a few seconds instead of starting next round immediately.","0","0","0","2","1","2","1","1","3","0","0","1","0","1","0","0","0","1","2","0","0","0","2","2","0","1","2","0","3","3","2","1","2","0","1","2","2","3","0","1","1","2","1","2","0","1","1","3","4","2","2","3","3","4","1","2","1","0","1","2","3","3","2","531.6000000238419","<br><br><br><br><table><tr><td><img src=static/images/oddball_down.png></td><td><img src=static/images/oddball_up.png></td><td><img src=static/images/oddball_up.png></td></tr></table>","81","1","","","","","","","","","","","","","","","","","",""
"","html-keyboard-response","18","180341","0.0-2.3-1.3","021","19","F","1659114128625","q","q","Only if I get the answer right","Nothing","A fixed time limit","4","female","No","I felt my fingers were out of control after 1-2 rounds, and I found that it would be better if I rest for a few seconds instead of starting next round immediately.","0","0","0","2","1","2","1","1","3","0","0","1","0","1","0","0","0","1","2","0","0","0","2","2","0","1","2","0","3","3","2","1","2","0","1","2","2","3","0","1","1","2","1","2","0","1","1","3","4","2","2","3","3","4","1","2","1","0","1","2","3","3","2","null","<div style=""font-size:75px;""><b>Correct</b></div>","null","","","","","","","","","","","","","","","","","","",""
"","html-keyboard-response","19","181348","0.0-2.3-2.3","021","19","F","1659114128625","q","q","Only if I get the answer right","Nothing","A fixed time limit","4","female","No","I felt my fingers were out of control after 1-2 rounds, and I found that it would be better if I rest for a few seconds instead of starting next round immediately.","0","0","0","2","1","2","1","1","3","0","0","1","0","1","0","0","0","1","2","0","0","0","2","2","0","1","2","0","3","3","2","1","2","0","1","2","2","3","0","1","1","2","1","2","0","1","1","3","4","2","2","3","3","4","1","2","1","0","1","2","3","3","2","531.6000000238419","","q","","true","practice","3","up","down","0","q","1","0","1659114310291","","","","","","","",""
"","html-keyboard-response","20","181998","0.0-2.4-0.4","021","19","F","1659114128625","q","q","Only if I get the answer right","Nothing","A fixed time limit","4","female","No","I felt my fingers were out of control after 1-2 rounds, and I found that it would be better if I rest for a few seconds instead of starting next round immediately.","0","0","0","2","1","2","1","1","3","0","0","1","0","1","0","0","0","1","2","0","0","0","2","2","0","1","2","0","3","3","2","1","2","0","1","2","2","3","0","1","1","2","1","2","0","1","1","3","4","2","2","3","3","4","1","2","1","0","1","2","3","3","2","649.6000000238419","<br><br><br><br><table><tr><td><img src=static/images/oddball_up.png></td><td><img src=static/images/oddball_down.png></td><td><img src=static/images/oddball_down.png></td></tr></table>","81","1","","","","","","","","","","","","","","","","","",""
"","html-keyboard-response","21","184499","0.0-2.4-1.4","021","19","F","1659114128625","q","q","Only if I get the answer right","Nothing","A fixed time limit","4","female","No","I felt my fingers were out of control after 1-2 rounds, and I found that it would be better if I rest for a few seconds instead of starting next round immediately.","0","0","0","2","1","2","1","1","3","0","0","1","0","1","0","0","0","1","2","0","0","0","2","2","0","1","2","0","3","3","2","1","2","0","1","2","2","3","0","1","1","2","1","2","0","1","1","3","4","2","2","3","3","4","1","2","1","0","1","2","3","3","2","null","<div style=""font-size:75px;""><b>Correct</b></div>","null","","","","","","","","","","","","","","","","","","",""
"","html-keyboard-response","22","185506","0.0-2.4-2.4","021","19","F","1659114128625","q","q","Only if I get the answer right","Nothing","A fixed time limit","4","female","No","I felt my fingers were out of control after 1-2 rounds, and I found that it would be better if I rest for a few seconds instead of starting next round immediately.","0","0","0","2","1","2","1","1","3","0","0","1","0","1","0","0","0","1","2","0","0","0","2","2","0","1","2","0","3","3","2","1","2","0","1","2","2","3","0","1","1","2","1","2","0","1","1","3","4","2","2","3","3","4","1","2","1","0","1","2","3","3","2","649.6000000238419","","q","","true","practice","4","down","up","0","q","1","0","1659114314449","","","","","","","",""
"","html-keyboard-response","23","186574","0.0-2.5-0.5","021","19","F","1659114128625","q","q","Only if I get the answer right","Nothing","A fixed time limit","4","female","No","I felt my fingers were out of control after 1-2 rounds, and I found that it would be better if I rest for a few seconds instead of starting next round immediately.","0","0","0","2","1","2","1","1","3","0","0","1","0","1","0","0","0","1","2","0","0","0","2","2","0","1","2","0","3","3","2","1","2","0","1","2","2","3","0","1","1","2","1","2","0","1","1","3","4","2","2","3","3","4","1","2","1","0","1","2","3","3","2","1067.6999999284744","<br><br><br><br><table><tr><td><img src=static/images/oddball_down.png></td><td><img src=static/images/oddball_up.png></td><td><img src=static/images/oddball_down.png></td></tr></table>","87","1","","","","","","","","","","","","","","","","","",""
"","html-keyboard-response","24","189090","0.0-2.5-1.5","021","19","F","1659114128625","q","q","Only if I get the answer right","Nothing","A fixed time limit","4","female","No","I felt my fingers were out of control after 1-2 rounds, and I found that it would be better if I rest for a few seconds instead of starting next round immediately.","0","0","0","2","1","2","1","1","3","0","0","1","0","1","0","0","0","1","2","0","0","0","2","2","0","1","2","0","3","3","2","1","2","0","1","2","2","3","0","1","1","2","1","2","0","1","1","3","4","2","2","3","3","4","1","2","1","0","1","2","3","3","2","null","<div style=""font-size:75px;""><b>Correct</b></div>","null","","","","","","","","","","","","","","","","","","",""
"","html-keyboard-response","25","190097","0.0-2.5-2.5","021","19","F","1659114128625","q","q","Only if I get the answer right","Nothing","A fixed time limit","4","female","No","I felt my fingers were out of control after 1-2 rounds, and I found that it would be better if I rest for a few seconds instead of starting next round immediately.","0","0","0","2","1","2","1","1","3","0","0","1","0","1","0","0","0","1","2","0","0","0","2","2","0","1","2","0","3","3","2","1","2","0","1","2","2","3","0","1","1","2","1","2","0","1","1","3","4","2","2","3","3","4","1","2","1","0","1","2","3","3","2","1067.6999999284744","","w","","true","practice","5","down","up","1","w","1","0","1659114319040","","","","","","","",""
"","html-keyboard-response","26","190663","0.0-2.6-0.6","021","19","F","1659114128625","q","q","Only if I get the answer right","Nothing","A fixed time limit","4","female","No","I felt my fingers were out of control after 1-2 rounds, and I found that it would be better if I rest for a few seconds instead of starting next round immediately.","0","0","0","2","1","2","1","1","3","0","0","1","0","1","0","0","0","1","2","0","0","0","2","2","0","1","2","0","3","3","2","1","2","0","1","2","2","3","0","1","1","2","1","2","0","1","1","3","4","2","2","3","3","4","1","2","1","0","1","2","3","3","2","565","<br><br><br><br><table><tr><td><img src=static/images/oddball_down.png></td><td><img src=static/images/oddball_down.png></td><td><img src=static/images/oddball_up.png></td></tr></table>","69","1","","","","","","","","","","","","","","","","","",""
"","html-keyboard-response","27","193164","0.0-2.6-1.6","021","19","F","1659114128625","q","q","Only if I get the answer right","Nothing","A fixed time limit","4","female","No","I felt my fingers were out of control after 1-2 rounds, and I found that it would be better if I rest for a few seconds instead of starting next round immediately.","0","0","0","2","1","2","1","1","3","0","0","1","0","1","0","0","0","1","2","0","0","0","2","2","0","1","2","0","3","3","2","1","2","0","1","2","2","3","0","1","1","2","1","2","0","1","1","3","4","2","2","3","3","4","1","2","1","0","1","2","3","3","2","null","<div style=""font-size:75px;""><b>Correct</b></div>","null","","","","","","","","","","","","","","","","","","",""
"","html-keyboard-response","28","194170","0.0-2.6-2.6","021","19","F","1659114128625","q","q","Only if I get the answer right","Nothing","A fixed time limit","4","female","No","I felt my fingers were out of control after 1-2 rounds, and I found that it would be better if I rest for a few seconds instead of starting next round immediately.","0","0","0","2","1","2","1","1","3","0","0","1","0","1","0","0","0","1","2","0","0","0","2","2","0","1","2","0","3","3","2","1","2","0","1","2","2","3","0","1","1","2","1","2","0","1","1","3","4","2","2","3","3","4","1","2","1","0","1","2","3","3","2","565","","e","","true","practice","6","down","up","2","e","1","0","1659114323113","","","","","","","",""
"","html-keyboard-response","29","194750","0.0-2.7-0.7","021","19","F","1659114128625","q","q","Only if I get the answer right","Nothing","A fixed time limit","4","female","No","I felt my fingers were out of control after 1-2 rounds, and I found that it would be better if I rest for a few seconds instead of starting next round immediately.","0","0","0","2","1","2","1","1","3","0","0","1","0","1","0","0","0","1","2","0","0","0","2","2","0","1","2","0","3","3","2","1","2","0","1","2","2","3","0","1","1","2","1","2","0","1","1","3","4","2","2","3","3","4","1","2","1","0","1","2","3","3","2","580","<br><br><br><br><table><tr><td><img src=static/images/oddball_down.png></td><td><img src=static/images/oddball_down.png></td><td><img src=static/images/oddball_up.png></td></tr></table>","69","1","","","","","","","","","","","","","","","","","",""
"","html-keyboard-response","30","197255","0.0-2.7-1.7","021","19","F","1659114128625","q","q","Only if I get the answer right","Nothing","A fixed time limit","4","female","No","I felt my fingers were out of control after 1-2 rounds, and I found that it would be better if I rest for a few seconds instead of starting next round immediately.","0","0","0","2","1","2","1","1","3","0","0","1","0","1","0","0","0","1","2","0","0","0","2","2","0","1","2","0","3","3","2","1","2","0","1","2","2","3","0","1","1","2","1","2","0","1","1","3","4","2","2","3","3","4","1","2","1","0","1","2","3","3","2","null","<div style=""font-size:75px;""><b>Correct</b></div>","null","","","","","","","","","","","","","","","","","","",""
"","html-keyboard-response","31","198262","0.0-2.7-2.7","021","19","F","1659114128625","q","q","Only if I get the answer right","Nothing","A fixed time limit","4","female","No","I felt my fingers were out of control after 1-2 rounds, and I found that it would be better if I rest for a few seconds instead of starting next round immediately.","0","0","0","2","1","2","1","1","3","0","0","1","0","1","0","0","0","1","2","0","0","0","2","2","0","1","2","0","3","3","2","1","2","0","1","2","2","3","0","1","1","2","1","2","0","1","1","3","4","2","2","3","3","4","1","2","1","0","1","2","3","3","2","580","","e","","true","practice","7","down","up","2","e","1","0","1659114327205","","","","","","","",""
"","html-keyboard-response","32","201046","0.0-2.8-0.8","021","19","F","1659114128625","q","q","Only if I get the answer right","Nothing","A fixed time limit","4","female","No","I felt my fingers were out of control after 1-2 rounds, and I found that it would be better if I rest for a few seconds instead of starting next round immediately.","0","0","0","2","1","2","1","1","3","0","0","1","0","1","0","0","0","1","2","0","0","0","2","2","0","1","2","0","3","3","2","1","2","0","1","2","2","3","0","1","1","2","1","2","0","1","1","3","4","2","2","3","3","4","1","2","1","0","1","2","3","3","2","2783.3000000715256","<br><br><br><br><table><tr><td><img src=static/images/oddball_down.png></td><td><img src=static/images/oddball_up.png></td><td><img src=static/images/oddball_down.png></td></tr></table>","87","1","","","","","","","","","","","","","","","","","",""
"","html-keyboard-response","33","203552","0.0-2.8-1.8","021","19","F","1659114128625","q","q","Only if I get the answer right","Nothing","A fixed time limit","4","female","No","I felt my fingers were out of control after 1-2 rounds, and I found that it would be better if I rest for a few seconds instead of starting next round immediately.","0","0","0","2","1","2","1","1","3","0","0","1","0","1","0","0","0","1","2","0","0","0","2","2","0","1","2","0","3","3","2","1","2","0","1","2","2","3","0","1","1","2","1","2","0","1","1","3","4","2","2","3","3","4","1","2","1","0","1","2","3","3","2","null","<div style=""font-size:75px;""><b>Correct</b></div>","null","","","","","","","","","","","","","","","","","","",""
"","html-keyboard-response","34","204559","0.0-2.8-2.8","021","19","F","1659114128625","q","q","Only if I get the answer right","Nothing","A fixed time limit","4","female","No","I felt my fingers were out of control after 1-2 rounds, and I found that it would be better if I rest for a few seconds instead of starting next round immediately.","0","0","0","2","1","2","1","1","3","0","0","1","0","1","0","0","0","1","2","0","0","0","2","2","0","1","2","0","3","3","2","1","2","0","1","2","2","3","0","1","1","2","1","2","0","1","1","3","4","2","2","3","3","4","1","2","1","0","1","2","3","3","2","2783.3000000715256","","w","","true","practice","8","down","up","1","w","1","0","1659114333502","","","","","","","",""
"","html-keyboard-response","35","205222","0.0-2.9-0.9","021","19","F","1659114128625","q","q","Only if I get the answer right","Nothing","A fixed time limit","4","female","No","I felt my fingers were out of control after 1-2 rounds, and I found that it would be better if I rest for a few seconds instead of starting next round immediately.","0","0","0","2","1","2","1","1","3","0","0","1","0","1","0","0","0","1","2","0","0","0","2","2","0","1","2","0","3","3","2","1","2","0","1","2","2","3","0","1","1","2","1","2","0","1","1","3","4","2","2","3","3","4","1","2","1","0","1","2","3","3","2","663.2999999523163","<br><br><br><br><table><tr><td><img src=static/images/oddball_up.png></td><td><img src=static/images/oddball_down.png></td><td><img src=static/images/oddball_down.png></td></tr></table>","81","1","","","","","","","","","","","","","","","","","",""
"","html-keyboard-response","36","207726","0.0-2.9-1.9","021","19","F","1659114128625","q","q","Only if I get the answer right","Nothing","A fixed time limit","4","female","No","I felt my fingers were out of control after 1-2 rounds, and I found that it would be better if I rest for a few seconds instead of starting next round immediately.","0","0","0","2","1","2","1","1","3","0","0","1","0","1","0","0","0","1","2","0","0","0","2","2","0","1","2","0","3","3","2","1","2","0","1","2","2","3","0","1","1","2","1","2","0","1","1","3","4","2","2","3","3","4","1","2","1","0","1","2","3","3","2","null","<div style=""font-size:75px;""><b>Correct</b></div>","null","","","","","","","","","","","","","","","","","","",""
"","html-keyboard-response","37","208734","0.0-2.9-2.9","021","19","F","1659114128625","q","q","Only if I get the answer right","Nothing","A fixed time limit","4","female","No","I felt my fingers were out of control after 1-2 rounds, and I found that it would be better if I rest for a few seconds instead of starting next round immediately.","0","0","0","2","1","2","1","1","3","0","0","1","0","1","0","0","0","1","2","0","0","0","2","2","0","1","2","0","3","3","2","1","2","0","1","2","2","3","0","1","1","2","1","2","0","1","1","3","4","2","2","3","3","4","1","2","1","0","1","2","3","3","2","663.2999999523163","","q","","true","practice","9","down","up","0","q","1","0","1659114337677","","","","","","","",""
"","html-keyboard-response","38","209206","0.0-2.10-0.10","021","19","F","1659114128625","q","q","Only if I get the answer right","Nothing","A fixed time limit","4","female","No","I felt my fingers were out of control after 1-2 rounds, and I found that it would be better if I rest for a few seconds instead of starting next round immediately.","0","0","0","2","1","2","1","1","3","0","0","1","0","1","0","0","0","1","2","0","0","0","2","2","0","1","2","0","3","3","2","1","2","0","1","2","2","3","0","1","1","2","1","2","0","1","1","3","4","2","2","3","3","4","1","2","1","0","1","2","3","3","2","472.1999999284744","<br><br><br><br><table><tr><td><img src=static/images/oddball_down.png></td><td><img src=static/images/oddball_down.png></td><td><img src=static/images/oddball_up.png></td></tr></table>","69","1","","","","","","","","","","","","","","","","","",""
"","html-keyboard-response","39","211716","0.0-2.10-1.10","021","19","F","1659114128625","q","q","Only if I get the answer right","Nothing","A fixed time limit","4","female","No","I felt my fingers were out of control after 1-2 rounds, and I found that it would be better if I rest for a few seconds instead of starting next round immediately.","0","0","0","2","1","2","1","1","3","0","0","1","0","1","0","0","0","1","2","0","0","0","2","2","0","1","2","0","3","3","2","1","2","0","1","2","2","3","0","1","1","2","1","2","0","1","1","3","4","2","2","3","3","4","1","2","1","0","1","2","3","3","2","null","<div style=""font-size:75px;""><b>Correct</b></div>","null","","","","","","","","","","","","","","","","","","",""
"","html-keyboard-response","40","212722","0.0-2.10-2.10","021","19","F","1659114128625","q","q","Only if I get the answer right","Nothing","A fixed time limit","4","female","No","I felt my fingers were out of control after 1-2 rounds, and I found that it would be better if I rest for a few seconds instead of starting next round immediately.","0","0","0","2","1","2","1","1","3","0","0","1","0","1","0","0","0","1","2","0","0","0","2","2","0","1","2","0","3","3","2","1","2","0","1","2","2","3","0","1","1","2","1","2","0","1","1","3","4","2","2","3","3","4","1","2","1","0","1","2","3","3","2","472.1999999284744","","e","","true","practice","10","down","up","2","e","1","0","1659114341665","","","","","","","",""
"","html-keyboard-response","41","213263","0.0-2.11-0.11","021","19","F","1659114128625","q","q","Only if I get the answer right","Nothing","A fixed time limit","4","female","No","I felt my fingers were out of control after 1-2 rounds, and I found that it would be better if I rest for a few seconds instead of starting next round immediately.","0","0","0","2","1","2","1","1","3","0","0","1","0","1","0","0","0","1","2","0","0","0","2","2","0","1","2","0","3","3","2","1","2","0","1","2","2","3","0","1","1","2","1","2","0","1","1","3","4","2","2","3","3","4","1","2","1","0","1","2","3","3","2","540.3999999761581","<br><br><br><br><table><tr><td><img src=static/images/oddball_down.png></td><td><img src=static/images/oddball_up.png></td><td><img src=static/images/oddball_up.png></td></tr></table>","81","1","","","","","","","","","","","","","","","","","",""
"","html-keyboard-response","42","215774","0.0-2.11-1.11","021","19","F","1659114128625","q","q","Only if I get the answer right","Nothing","A fixed time limit","4","female","No","I felt my fingers were out of control after 1-2 rounds, and I found that it would be better if I rest for a few seconds instead of starting next round immediately.","0","0","0","2","1","2","1","1","3","0","0","1","0","1","0","0","0","1","2","0","0","0","2","2","0","1","2","0","3","3","2","1","2","0","1","2","2","3","0","1","1","2","1","2","0","1","1","3","4","2","2","3","3","4","1","2","1","0","1","2","3","3","2","null","<div style=""font-size:75px;""><b>Correct</b></div>","null","","","","","","","","","","","","","","","","","","",""
"","html-keyboard-response","43","216780","0.0-2.11-2.11","021","19","F","1659114128625","q","q","Only if I get the answer right","Nothing","A fixed time limit","4","female","No","I felt my fingers were out of control after 1-2 rounds, and I found that it would be better if I rest for a few seconds instead of starting next round immediately.","0","0","0","2","1","2","1","1","3","0","0","1","0","1","0","0","0","1","2","0","0","0","2","2","0","1","2","0","3","3","2","1","2","0","1","2","2","3","0","1","1","2","1","2","0","1","1","3","4","2","2","3","3","4","1","2","1","0","1","2","3","3","2","540.3999999761581","","q","","true","practice","11","up","down","0","q","1","0","1659114345723","","","","","","","",""
"","html-keyboard-response","44","217271","0.0-2.12-0.12","021","19","F","1659114128625","q","q","Only if I get the answer right","Nothing","A fixed time limit","4","female","No","I felt my fingers were out of control after 1-2 rounds, and I found that it would be better if I rest for a few seconds instead of starting next round immediately.","0","0","0","2","1","2","1","1","3","0","0","1","0","1","0","0","0","1","2","0","0","0","2","2","0","1","2","0","3","3","2","1","2","0","1","2","2","3","0","1","1","2","1","2","0","1","1","3","4","2","2","3","3","4","1","2","1","0","1","2","3","3","2","490.8000000715256","<br><br><br><br><table><tr><td><img src=static/images/oddball_down.png></td><td><img src=static/images/oddball_down.png></td><td><img src=static/images/oddball_up.png></td></tr></table>","69","1","","","","","","","","","","","","","","","","","",""
"","html-keyboard-response","45","219781","0.0-2.12-1.12","021","19","F","1659114128625","q","q","Only if I get the answer right","Nothing","A fixed time limit","4","female","No","I felt my fingers were out of control after 1-2 rounds, and I found that it would be better if I rest for a few seconds instead of starting next round immediately.","0","0","0","2","1","2","1","1","3","0","0","1","0","1","0","0","0","1","2","0","0","0","2","2","0","1","2","0","3","3","2","1","2","0","1","2","2","3","0","1","1","2","1","2","0","1","1","3","4","2","2","3","3","4","1","2","1","0","1","2","3","3","2","null","<div style=""font-size:75px;""><b>Correct</b></div>","null","","","","","","","","","","","","","","","","","","",""
"","html-keyboard-response","46","220787","0.0-2.12-2.12","021","19","F","1659114128625","q","q","Only if I get the answer right","Nothing","A fixed time limit","4","female","No","I felt my fingers were out of control after 1-2 rounds, and I found that it would be better if I rest for a few seconds instead of starting next round immediately.","0","0","0","2","1","2","1","1","3","0","0","1","0","1","0","0","0","1","2","0","0","0","2","2","0","1","2","0","3","3","2","1","2","0","1","2","2","3","0","1","1","2","1","2","0","1","1","3","4","2","2","3","3","4","1","2","1","0","1","2","3","3","2","490.8000000715256","","e","","true","practice","12","down","up","2","e","1","0","1659114349730","","","","","","","",""
"","html-keyboard-response","47","221255","0.0-2.13-0.13","021","19","F","1659114128625","q","q","Only if I get the answer right","Nothing","A fixed time limit","4","female","No","I felt my fingers were out of control after 1-2 rounds, and I found that it would be better if I rest for a few seconds instead of starting next round immediately.","0","0","0","2","1","2","1","1","3","0","0","1","0","1","0","0","0","1","2","0","0","0","2","2","0","1","2","0","3","3","2","1","2","0","1","2","2","3","0","1","1","2","1","2","0","1","1","3","4","2","2","3","3","4","1","2","1","0","1","2","3","3","2","466.89999997615814","<br><br><br><br><table><tr><td><img src=static/images/oddball_down.png></td><td><img src=static/images/oddball_down.png></td><td><img src=static/images/oddball_up.png></td></tr></table>","69","1","","","","","","","","","","","","","","","","","",""
"","html-keyboard-response","48","223757","0.0-2.13-1.13","021","19","F","1659114128625","q","q","Only if I get the answer right","Nothing","A fixed time limit","4","female","No","I felt my fingers were out of control after 1-2 rounds, and I found that it would be better if I rest for a few seconds instead of starting next round immediately.","0","0","0","2","1","2","1","1","3","0","0","1","0","1","0","0","0","1","2","0","0","0","2","2","0","1","2","0","3","3","2","1","2","0","1","2","2","3","0","1","1","2","1","2","0","1","1","3","4","2","2","3","3","4","1","2","1","0","1","2","3","3","2","null","<div style=""font-size:75px;""><b>Correct</b></div>","null","","","","","","","","","","","","","","","","","","",""
"","html-keyboard-response","49","224764","0.0-2.13-2.13","021","19","F","1659114128625","q","q","Only if I get the answer right","Nothing","A fixed time limit","4","female","No","I felt my fingers were out of control after 1-2 rounds, and I found that it would be better if I rest for a few seconds instead of starting next round immediately.","0","0","0","2","1","2","1","1","3","0","0","1","0","1","0","0","0","1","2","0","0","0","2","2","0","1","2","0","3","3","2","1","2","0","1","2","2","3","0","1","1","2","1","2","0","1","1","3","4","2","2","3","3","4","1","2","1","0","1","2","3","3","2","466.89999997615814","","e","","true","practice","13","down","up","2","e","1","0","1659114353707","","","","","","","",""
"","html-keyboard-response","50","225351","0.0-2.14-0.14","021","19","F","1659114128625","q","q","Only if I get the answer right","Nothing","A fixed time limit","4","female","No","I felt my fingers were out of control after 1-2 rounds, and I found that it would be better if I rest for a few seconds instead of starting next round immediately.","0","0","0","2","1","2","1","1","3","0","0","1","0","1","0","0","0","1","2","0","0","0","2","2","0","1","2","0","3","3","2","1","2","0","1","2","2","3","0","1","1","2","1","2","0","1","1","3","4","2","2","3","3","4","1","2","1","0","1","2","3","3","2","586.2000000476837","<br><br><br><br><table><tr><td><img src=static/images/oddball_up.png></td><td><img src=static/images/oddball_down.png></td><td><img src=static/images/oddball_down.png></td></tr></table>","81","1","","","","","","","","","","","","","","","","","",""
"","html-keyboard-response","51","227864","0.0-2.14-1.14","021","19","F","1659114128625","q","q","Only if I get the answer right","Nothing","A fixed time limit","4","female","No","I felt my fingers were out of control after 1-2 rounds, and I found that it would be better if I rest for a few seconds instead of starting next round immediately.","0","0","0","2","1","2","1","1","3","0","0","1","0","1","0","0","0","1","2","0","0","0","2","2","0","1","2","0","3","3","2","1","2","0","1","2","2","3","0","1","1","2","1","2","0","1","1","3","4","2","2","3","3","4","1","2","1","0","1","2","3","3","2","null","<div style=""font-size:75px;""><b>Correct</b></div>","null","","","","","","","","","","","","","","","","","","",""
"","html-keyboard-response","52","228871","0.0-2.14-2.14","021","19","F","1659114128625","q","q","Only if I get the answer right","Nothing","A fixed time limit","4","female","No","I felt my fingers were out of control after 1-2 rounds, and I found that it would be better if I rest for a few seconds instead of starting next round immediately.","0","0","0","2","1","2","1","1","3","0","0","1","0","1","0","0","0","1","2","0","0","0","2","2","0","1","2","0","3","3","2","1","2","0","1","2","2","3","0","1","1","2","1","2","0","1","1","3","4","2","2","3","3","4","1","2","1","0","1","2","3","3","2","586.2000000476837","","q","","true","practice","14","down","up","0","q","1","0","1659114357814","","","","","","","",""
"","html-keyboard-response","53","229599","0.0-2.15-0.15","021","19","F","1659114128625","q","q","Only if I get the answer right","Nothing","A fixed time limit","4","female","No","I felt my fingers were out of control after 1-2 rounds, and I found that it would be better if I rest for a few seconds instead of starting next round immediately.","0","0","0","2","1","2","1","1","3","0","0","1","0","1","0","0","0","1","2","0","0","0","2","2","0","1","2","0","3","3","2","1","2","0","1","2","2","3","0","1","1","2","1","2","0","1","1","3","4","2","2","3","3","4","1","2","1","0","1","2","3","3","2","726.9000000953674","<br><br><br><br><table><tr><td><img src=static/images/oddball_up.png></td><td><img src=static/images/oddball_up.png></td><td><img src=static/images/oddball_down.png></td></tr></table>","69","1","","","","","","","","","","","","","","","","","",""
"","html-keyboard-response","54","232105","0.0-2.15-1.15","021","19","F","1659114128625","q","q","Only if I get the answer right","Nothing","A fixed time limit","4","female","No","I felt my fingers were out of control after 1-2 rounds, and I found that it would be better if I rest for a few seconds instead of starting next round immediately.","0","0","0","2","1","2","1","1","3","0","0","1","0","1","0","0","0","1","2","0","0","0","2","2","0","1","2","0","3","3","2","1","2","0","1","2","2","3","0","1","1","2","1","2","0","1","1","3","4","2","2","3","3","4","1","2","1","0","1","2","3","3","2","null","<div style=""font-size:75px;""><b>Correct</b></div>","null","","","","","","","","","","","","","","","","","","",""
"","html-keyboard-response","55","233111","0.0-2.15-2.15","021","19","F","1659114128625","q","q","Only if I get the answer right","Nothing","A fixed time limit","4","female","No","I felt my fingers were out of control after 1-2 rounds, and I found that it would be better if I rest for a few seconds instead of starting next round immediately.","0","0","0","2","1","2","1","1","3","0","0","1","0","1","0","0","0","1","2","0","0","0","2","2","0","1","2","0","3","3","2","1","2","0","1","2","2","3","0","1","1","2","1","2","0","1","1","3","4","2","2","3","3","4","1","2","1","0","1","2","3","3","2","726.9000000953674","","e","","true","practice","15","up","down","2","e","1","0","1659114362054","","","","","","","",""
"","html-keyboard-response","56","233647","0.0-2.16-0.16","021","19","F","1659114128625","q","q","Only if I get the answer right","Nothing","A fixed time limit","4","female","No","I felt my fingers were out of control after 1-2 rounds, and I found that it would be better if I rest for a few seconds instead of starting next round immediately.","0","0","0","2","1","2","1","1","3","0","0","1","0","1","0","0","0","1","2","0","0","0","2","2","0","1","2","0","3","3","2","1","2","0","1","2","2","3","0","1","1","2","1","2","0","1","1","3","4","2","2","3","3","4","1","2","1","0","1","2","3","3","2","535.5","<br><br><br><br><table><tr><td><img src=static/images/oddball_up.png></td><td><img src=static/images/oddball_down.png></td><td><img src=static/images/oddball_down.png></td></tr></table>","81","1","","","","","","","","","","","","","","","","","",""
"","html-keyboard-response","57","236161","0.0-2.16-1.16","021","19","F","1659114128625","q","q","Only if I get the answer right","Nothing","A fixed time limit","4","female","No","I felt my fingers were out of control after 1-2 rounds, and I found that it would be better if I rest for a few seconds instead of starting next round immediately.","0","0","0","2","1","2","1","1","3","0","0","1","0","1","0","0","0","1","2","0","0","0","2","2","0","1","2","0","3","3","2","1","2","0","1","2","2","3","0","1","1","2","1","2","0","1","1","3","4","2","2","3","3","4","1","2","1","0","1","2","3","3","2","null","<div style=""font-size:75px;""><b>Correct</b></div>","null","","","","","","","","","","","","","","","","","","",""
"","html-keyboard-response","58","237169","0.0-2.16-2.16","021","19","F","1659114128625","q","q","Only if I get the answer right","Nothing","A fixed time limit","4","female","No","I felt my fingers were out of control after 1-2 rounds, and I found that it would be better if I rest for a few seconds instead of starting next round immediately.","0","0","0","2","1","2","1","1","3","0","0","1","0","1","0","0","0","1","2","0","0","0","2","2","0","1","2","0","3","3","2","1","2","0","1","2","2","3","0","1","1","2","1","2","0","1","1","3","4","2","2","3","3","4","1","2","1","0","1","2","3","3","2","535.5","","q","","true","practice","16","down","up","0","q","1","0","1659114366112","","","","","","","",""
"","html-keyboard-response","59","237719","0.0-2.17-0.17","021","19","F","1659114128625","q","q","Only if I get the answer right","Nothing","A fixed time limit","4","female","No","I felt my fingers were out of control after 1-2 rounds, and I found that it would be better if I rest for a few seconds instead of starting next round immediately.","0","0","0","2","1","2","1","1","3","0","0","1","0","1","0","0","0","1","2","0","0","0","2","2","0","1","2","0","3","3","2","1","2","0","1","2","2","3","0","1","1","2","1","2","0","1","1","3","4","2","2","3","3","4","1","2","1","0","1","2","3","3","2","549.4000000953674","<br><br><br><br><table><tr><td><img src=static/images/oddball_down.png></td><td><img src=static/images/oddball_down.png></td><td><img src=static/images/oddball_up.png></td></tr></table>","69","1","","","","","","","","","","","","","","","","","",""
"","html-keyboard-response","60","240222","0.0-2.17-1.17","021","19","F","1659114128625","q","q","Only if I get the answer right","Nothing","A fixed time limit","4","female","No","I felt my fingers were out of control after 1-2 rounds, and I found that it would be better if I rest for a few seconds instead of starting next round immediately.","0","0","0","2","1","2","1","1","3","0","0","1","0","1","0","0","0","1","2","0","0","0","2","2","0","1","2","0","3","3","2","1","2","0","1","2","2","3","0","1","1","2","1","2","0","1","1","3","4","2","2","3","3","4","1","2","1","0","1","2","3","3","2","null","<div style=""font-size:75px;""><b>Correct</b></div>","null","","","","","","","","","","","","","","","","","","",""
"","html-keyboard-response","61","241228","0.0-2.17-2.17","021","19","F","1659114128625","q","q","Only if I get the answer right","Nothing","A fixed time limit","4","female","No","I felt my fingers were out of control after 1-2 rounds, and I found that it would be better if I rest for a few seconds instead of starting next round immediately.","0","0","0","2","1","2","1","1","3","0","0","1","0","1","0","0","0","1","2","0","0","0","2","2","0","1","2","0","3","3","2","1","2","0","1","2","2","3","0","1","1","2","1","2","0","1","1","3","4","2","2","3","3","4","1","2","1","0","1","2","3","3","2","549.4000000953674","","e","","true","practice","17","down","up","2","e","1","0","1659114370172","","","","","","","",""
"","html-keyboard-response","62","241703","0.0-2.18-0.18","021","19","F","1659114128625","q","q","Only if I get the answer right","Nothing","A fixed time limit","4","female","No","I felt my fingers were out of control after 1-2 rounds, and I found that it would be better if I rest for a few seconds instead of starting next round immediately.","0","0","0","2","1","2","1","1","3","0","0","1","0","1","0","0","0","1","2","0","0","0","2","2","0","1","2","0","3","3","2","1","2","0","1","2","2","3","0","1","1","2","1","2","0","1","1","3","4","2","2","3","3","4","1","2","1","0","1","2","3","3","2","474.09999990463257","<br><br><br><br><table><tr><td><img src=static/images/oddball_up.png></td><td><img src=static/images/oddball_up.png></td><td><img src=static/images/oddball_down.png></td></tr></table>","69","1","","","","","","","","","","","","","","","","","",""
"","html-keyboard-response","63","244210","0.0-2.18-1.18","021","19","F","1659114128625","q","q","Only if I get the answer right","Nothing","A fixed time limit","4","female","No","I felt my fingers were out of control after 1-2 rounds, and I found that it would be better if I rest for a few seconds instead of starting next round immediately.","0","0","0","2","1","2","1","1","3","0","0","1","0","1","0","0","0","1","2","0","0","0","2","2","0","1","2","0","3","3","2","1","2","0","1","2","2","3","0","1","1","2","1","2","0","1","1","3","4","2","2","3","3","4","1","2","1","0","1","2","3","3","2","null","<div style=""font-size:75px;""><b>Correct</b></div>","null","","","","","","","","","","","","","","","","","","",""
"","html-keyboard-response","64","245217","0.0-2.18-2.18","021","19","F","1659114128625","q","q","Only if I get the answer right","Nothing","A fixed time limit","4","female","No","I felt my fingers were out of control after 1-2 rounds, and I found that it would be better if I rest for a few seconds instead of starting next round immediately.","0","0","0","2","1","2","1","1","3","0","0","1","0","1","0","0","0","1","2","0","0","0","2","2","0","1","2","0","3","3","2","1","2","0","1","2","2","3","0","1","1","2","1","2","0","1","1","3","4","2","2","3","3","4","1","2","1","0","1","2","3","3","2","474.09999990463257","","e","","true","practice","18","up","down","2","e","1","0","1659114374160","","","","","","","",""
"","html-keyboard-response","65","245735","0.0-2.19-0.19","021","19","F","1659114128625","q","q","Only if I get the answer right","Nothing","A fixed time limit","4","female","No","I felt my fingers were out of control after 1-2 rounds, and I found that it would be better if I rest for a few seconds instead of starting next round immediately.","0","0","0","2","1","2","1","1","3","0","0","1","0","1","0","0","0","1","2","0","0","0","2","2","0","1","2","0","3","3","2","1","2","0","1","2","2","3","0","1","1","2","1","2","0","1","1","3","4","2","2","3","3","4","1","2","1","0","1","2","3","3","2","517.2000000476837","<br><br><br><br><table><tr><td><img src=static/images/oddball_up.png></td><td><img src=static/images/oddball_up.png></td><td><img src=static/images/oddball_down.png></td></tr></table>","69","1","","","","","","","","","","","","","","","","","",""
"","html-keyboard-response","66","248236","0.0-2.19-1.19","021","19","F","1659114128625","q","q","Only if I get the answer right","Nothing","A fixed time limit","4","female","No","I felt my fingers were out of control after 1-2 rounds, and I found that it would be better if I rest for a few seconds instead of starting next round immediately.","0","0","0","2","1","2","1","1","3","0","0","1","0","1","0","0","0","1","2","0","0","0","2","2","0","1","2","0","3","3","2","1","2","0","1","2","2","3","0","1","1","2","1","2","0","1","1","3","4","2","2","3","3","4","1","2","1","0","1","2","3","3","2","null","<div style=""font-size:75px;""><b>Correct</b></div>","null","","","","","","","","","","","","","","","","","","",""
"","html-keyboard-response","67","249244","0.0-2.19-2.19","021","19","F","1659114128625","q","q","Only if I get the answer right","Nothing","A fixed time limit","4","female","No","I felt my fingers were out of control after 1-2 rounds, and I found that it would be better if I rest for a few seconds instead of starting next round immediately.","0","0","0","2","1","2","1","1","3","0","0","1","0","1","0","0","0","1","2","0","0","0","2","2","0","1","2","0","3","3","2","1","2","0","1","2","2","3","0","1","1","2","1","2","0","1","1","3","4","2","2","3","3","4","1","2","1","0","1","2","3","3","2","517.2000000476837","","e","","true","practice","19","up","down","2","e","1","0","1659114378187","","","","","","","",""
"","image-keyboard-response","68","261143","0.0-3.0-0.0","021","19","F","1659114128625","q","q","Only if I get the answer right","Nothing","A fixed time limit","4","female","No","I felt my fingers were out of control after 1-2 rounds, and I found that it would be better if I rest for a few seconds instead of starting next round immediately.","0","0","0","2","1","2","1","1","3","0","0","1","0","1","0","0","0","1","2","0","0","0","2","2","0","1","2","0","3","3","2","1","2","0","1","2","2","3","0","1","1","2","1","2","0","1","1","3","4","2","2","3","3","4","1","2","1","0","1","2","3","3","2","11898.5","static/images/instructions/Slide8.png","39","","","","","","","","","","","","","","","","","","",""
"","image-keyboard-response","69","284116","0.0-3.1-0.1","021","19","F","1659114128625","q","q","Only if I get the answer right","Nothing","A fixed time limit","4","female","No","I felt my fingers were out of control after 1-2 rounds, and I found that it would be better if I rest for a few seconds instead of starting next round immediately.","0","0","0","2","1","2","1","1","3","0","0","1","0","1","0","0","0","1","2","0","0","0","2","2","0","1","2","0","3","3","2","1","2","0","1","2","2","3","0","1","1","2","1","2","0","1","1","3","4","2","2","3","3","4","1","2","1","0","1","2","3","3","2","22975.099999904633","static/images/instructions/Slide9.png","39","","","","","","","","","","","","","","","","","","",""
"","image-keyboard-response","70","295956","0.0-3.2-0.2","021","19","F","1659114128625","q","q","Only if I get the answer right","Nothing","A fixed time limit","4","female","No","I felt my fingers were out of control after 1-2 rounds, and I found that it would be better if I rest for a few seconds instead of starting next round immediately.","0","0","0","2","1","2","1","1","3","0","0","1","0","1","0","0","0","1","2","0","0","0","2","2","0","1","2","0","3","3","2","1","2","0","1","2","2","3","0","1","1","2","1","2","0","1","1","3","4","2","2","3","3","4","1","2","1","0","1","2","3","3","2","11839.300000071526","static/images/instructions/Slide10.png","39","","","","","","","","","","","","","","","","","","",""
"","image-keyboard-response","71","312364","0.0-3.3-0.3","021","19","F","1659114128625","q","q","Only if I get the answer right","Nothing","A fixed time limit","4","female","No","I felt my fingers were out of control after 1-2 rounds, and I found that it would be better if I rest for a few seconds instead of starting next round immediately.","0","0","0","2","1","2","1","1","3","0","0","1","0","1","0","0","0","1","2","0","0","0","2","2","0","1","2","0","3","3","2","1","2","0","1","2","2","3","0","1","1","2","1","2","0","1","1","3","4","2","2","3","3","4","1","2","1","0","1","2","3","3","2","16407.399999976158","static/images/instructions/Slide11.png","39","","","","","","","","","","","","","","","","","","",""
"","image-keyboard-response","72","317484","0.0-3.4-0.4","021","19","F","1659114128625","q","q","Only if I get the answer right","Nothing","A fixed time limit","4","female","No","I felt my fingers were out of control after 1-2 rounds, and I found that it would be better if I rest for a few seconds instead of starting next round immediately.","0","0","0","2","1","2","1","1","3","0","0","1","0","1","0","0","0","1","2","0","0","0","2","2","0","1","2","0","3","3","2","1","2","0","1","2","2","3","0","1","1","2","1","2","0","1","1","3","4","2","2","3","3","4","1","2","1","0","1","2","3","3","2","5119.300000071526","static/images/instructions/Slide12.png","39","","","","","","","","","","","","","","","","","","",""
"","image-keyboard-response","73","322348","0.0-3.5-0.5","021","19","F","1659114128625","q","q","Only if I get the answer right","Nothing","A fixed time limit","4","female","No","I felt my fingers were out of control after 1-2 rounds, and I found that it would be better if I rest for a few seconds instead of starting next round immediately.","0","0","0","2","1","2","1","1","3","0","0","1","0","1","0","0","0","1","2","0","0","0","2","2","0","1","2","0","3","3","2","1","2","0","1","2","2","3","0","1","1","2","1","2","0","1","1","3","4","2","2","3","3","4","1","2","1","0","1","2","3","3","2","4863.200000047684","static/images/instructions/Slide13.png","39","","","","","","","","","","","","","","","","","","",""
"","image-keyboard-response","74","335020","0.0-3.6-0.6","021","19","F","1659114128625","q","q","Only if I get the answer right","Nothing","A fixed time limit","4","female","No","I felt my fingers were out of control after 1-2 rounds, and I found that it would be better if I rest for a few seconds instead of starting next round immediately.","0","0","0","2","1","2","1","1","3","0","0","1","0","1","0","0","0","1","2","0","0","0","2","2","0","1","2","0","3","3","2","1","2","0","1","2","2","3","0","1","1","2","1","2","0","1","1","3","4","2","2","3","3","4","1","2","1","0","1","2","3","3","2","12671.400000095367","static/images/instructions/Slide14.png","39","","","","","","","","","","","","","","","","","","",""
"","image-keyboard-response","75","344256","0.0-3.7-0.7","021","19","F","1659114128625","q","q","Only if I get the answer right","Nothing","A fixed time limit","4","female","No","I felt my fingers were out of control after 1-2 rounds, and I found that it would be better if I rest for a few seconds instead of starting next round immediately.","0","0","0","2","1","2","1","1","3","0","0","1","0","1","0","0","0","1","2","0","0","0","2","2","0","1","2","0","3","3","2","1","2","0","1","2","2","3","0","1","1","2","1","2","0","1","1","3","4","2","2","3","3","4","1","2","1","0","1","2","3","3","2","9247.400000095367","static/images/instructions/Slide15.png","39","","","","","","","","","","","","","","","","","","",""
"","image-keyboard-response","76","347792","0.0-3.8-0.8","021","19","F","1659114128625","q","q","Only if I get the answer right","Nothing","A fixed time limit","4","female","No","I felt my fingers were out of control after 1-2 rounds, and I found that it would be better if I rest for a few seconds instead of starting next round immediately.","0","0","0","2","1","2","1","1","3","0","0","1","0","1","0","0","0","1","2","0","0","0","2","2","0","1","2","0","3","3","2","1","2","0","1","2","2","3","0","1","1","2","1","2","0","1","1","3","4","2","2","3","3","4","1","2","1","0","1","2","3","3","2","3535.3000000715256","static/images/instructions/Slide16.png","39","","","","","","","","","","","","","","","","","","",""
"","image-keyboard-response","77","349472","0.0-3.9-0.9","021","19","F","1659114128625","q","q","Only if I get the answer right","Nothing","A fixed time limit","4","female","No","I felt my fingers were out of control after 1-2 rounds, and I found that it would be better if I rest for a few seconds instead of starting next round immediately.","0","0","0","2","1","2","1","1","3","0","0","1","0","1","0","0","0","1","2","0","0","0","2","2","0","1","2","0","3","3","2","1","2","0","1","2","2","3","0","1","1","2","1","2","0","1","1","3","4","2","2","3","3","4","1","2","1","0","1","2","3","3","2","1679.7999999523163","static/images/instructions/Slide17.png","39","","","","","","","","","","","","","","","","","","",""
"","survey-multi-choice","78","403600","0.0-4.0","021","19","F","1659114128625","q","q","Only if I get the answer right","Nothing","A fixed time limit","4","female","No","I felt my fingers were out of control after 1-2 rounds, and I found that it would be better if I rest for a few seconds instead of starting next round immediately.","0","0","0","2","1","2","1","1","3","0","0","1","0","1","0","0","0","1","2","0","0","0","2","2","0","1","2","0","3","3","2","1","2","0","1","2","2","3","0","1","1","2","1","2","0","1","1","3","4","2","2","3","3","4","1","2","1","0","1","2","3","3","2","54126.200000047684","","","","","","","","","","","","","","{""q1"":""q"",""q2"":""q"",""q3"":""Only if I get the answer right"",""q4"":""Nothing"",""q5"":""A fixed time limit""}","[0,4,2,3,1]","","","","","",""
"","image-keyboard-response","79","413095","0.0-5.0-0.0","021","19","F","1659114128625","q","q","Only if I get the answer right","Nothing","A fixed time limit","4","female","No","I felt my fingers were out of control after 1-2 rounds, and I found that it would be better if I rest for a few seconds instead of starting next round immediately.","0","0","0","2","1","2","1","1","3","0","0","1","0","1","0","0","0","1","2","0","0","0","2","2","0","1","2","0","3","3","2","1","2","0","1","2","2","3","0","1","1","2","1","2","0","1","1","3","4","2","2","3","3","4","1","2","1","0","1","2","3","3","2","9478.400000095367","static/images/instructions/Slide18.png","39","","","","","","","","","","","","","","","","","","",""
"","html-keyboard-response","80","414101","0.0-6.0-0.0-0.0","021","19","F","1659114128625","q","q","Only if I get the answer right","Nothing","A fixed time limit","4","female","No","I felt my fingers were out of control after 1-2 rounds, and I found that it would be better if I rest for a few seconds instead of starting next round immediately.","0","0","0","2","1","2","1","1","3","0","0","1","0","1","0","0","0","1","2","0","0","0","2","2","0","1","2","0","3","3","2","1","2","0","1","2","2","3","0","1","1","2","1","2","0","1","1","3","4","2","2","3","3","4","1","2","1","0","1","2","3","3","2","null","<div style=""font-size:75px;"">3</div>","null","","","","","","","","","","","","","","","","","","",""
"","html-keyboard-response","81","415102","0.0-6.0-0.1-0.1","021","19","F","1659114128625","q","q","Only if I get the answer right","Nothing","A fixed time limit","4","female","No","I felt my fingers were out of control after 1-2 rounds, and I found that it would be better if I rest for a few seconds instead of starting next round immediately.","0","0","0","2","1","2","1","1","3","0","0","1","0","1","0","0","0","1","2","0","0","0","2","2","0","1","2","0","3","3","2","1","2","0","1","2","2","3","0","1","1","2","1","2","0","1","1","3","4","2","2","3","3","4","1","2","1","0","1","2","3","3","2","null","<div style=""font-size:75px;"">2</div>","null","","","","","","","","","","","","","","","","","","",""
"","html-keyboard-response","82","416106","0.0-6.0-0.2-0.2","021","19","F","1659114128625","q","q","Only if I get the answer right","Nothing","A fixed time limit","4","female","No","I felt my fingers were out of control after 1-2 rounds, and I found that it would be better if I rest for a few seconds instead of starting next round immediately.","0","0","0","2","1","2","1","1","3","0","0","1","0","1","0","0","0","1","2","0","0","0","2","2","0","1","2","0","3","3","2","1","2","0","1","2","2","3","0","1","1","2","1","2","0","1","1","3","4","2","2","3","3","4","1","2","1","0","1","2","3","3","2","null","<div style=""font-size:75px;"">1</div>","null","","","","","","","","","","","","","","","","","","",""
"","html-keyboard-response","83","416639","0.0-6.0-1.0-0.0","021","19","F","1659114128625","q","q","Only if I get the answer right","Nothing","A fixed time limit","4","female","No","I felt my fingers were out of control after 1-2 rounds, and I found that it would be better if I rest for a few seconds instead of starting next round immediately.","0","0","0","2","1","2","1","1","3","0","0","1","0","1","0","0","0","1","2","0","0","0","2","2","0","1","2","0","3","3","2","1","2","0","1","2","2","3","0","1","1","2","1","2","0","1","1","3","4","2","2","3","3","4","1","2","1","0","1","2","3","3","2","529","<br><br><br><br><table><tr><td><img src=static/images/oddball_down.png></td><td><img src=static/images/oddball_down.png></td><td><img src=static/images/oddball_up.png></td></tr></table>","69","1","","","","","","","","","","","","","","","","","",""
"","html-keyboard-response","84","416641","0.0-6.0-1.0-1.0","021","19","F","1659114128625","q","q","Only if I get the answer right","Nothing","A fixed time limit","4","female","No","I felt my fingers were out of control after 1-2 rounds, and I found that it would be better if I rest for a few seconds instead of starting next round immediately.","0","0","0","2","1","2","1","1","3","0","0","1","0","1","0","0","0","1","2","0","0","0","2","2","0","1","2","0","3","3","2","1","2","0","1","2","2","3","0","1","1","2","1","2","0","1","1","3","4","2","2","3","3","4","1","2","1","0","1","2","3","3","2","529","","e","","true","0","0","down","up","2","e","1","0","1659114545584","","","true","60","0","0","0.25","null"
"","html-keyboard-response","85","417407","0.0-6.0-1.1-0.1","021","19","F","1659114128625","q","q","Only if I get the answer right","Nothing","A fixed time limit","4","female","No","I felt my fingers were out of control after 1-2 rounds, and I found that it would be better if I rest for a few seconds instead of starting next round immediately.","0","0","0","2","1","2","1","1","3","0","0","1","0","1","0","0","0","1","2","0","0","0","2","2","0","1","2","0","3","3","2","1","2","0","1","2","2","3","0","1","1","2","1","2","0","1","1","3","4","2","2","3","3","4","1","2","1","0","1","2","3","3","2","null","<br><br><br><br><table><tr><td><img src=static/images/oddball_down.png></td><td><img src=static/images/oddball_up.png></td><td><img src=static/images/oddball_down.png></td></tr></table>","null","","","","","","","","","","","","","","","","","","",""
"","html-keyboard-response","86","417410","0.0-6.0-1.1-1.1","021","19","F","1659114128625","q","q","Only if I get the answer right","Nothing","A fixed time limit","4","female","No","I felt my fingers were out of control after 1-2 rounds, and I found that it would be better if I rest for a few seconds instead of starting next round immediately.","0","0","0","2","1","2","1","1","3","0","0","1","0","1","0","0","0","1","2","0","0","0","2","2","0","1","2","0","3","3","2","1","2","0","1","2","2","3","0","1","1","2","1","2","0","1","1","3","4","2","2","3","3","4","1","2","1","0","1","2","3","3","2","null","","null","","true","0","1","down","up","1","w","0","0","1659114546353","","","true","60","1","0.016666666666666666","0.25","true"
"","html-keyboard-response","87","417599","0.0-6.0-1.2-0.2","021","19","F","1659114128625","q","q","Only if I get the answer right","Nothing","A fixed time limit","4","female","No","I felt my fingers were out of control after 1-2 rounds, and I found that it would be better if I rest for a few seconds instead of starting next round immediately.","0","0","0","2","1","2","1","1","3","0","0","1","0","1","0","0","0","1","2","0","0","0","2","2","0","1","2","0","3","3","2","1","2","0","1","2","2","3","0","1","1","2","1","2","0","1","1","3","4","2","2","3","3","4","1","2","1","0","1","2","3","3","2","187.60000002384186","<br><br><br><br><table><tr><td><img src=static/images/oddball_down.png></td><td><img src=static/images/oddball_down.png></td><td><img src=static/images/oddball_up.png></td></tr></table>","87","1","","","","","","","","","","","","","","","","","",""
"","html-keyboard-response","88","417602","0.0-6.0-1.2-1.2","021","19","F","1659114128625","q","q","Only if I get the answer right","Nothing","A fixed time limit","4","female","No","I felt my fingers were out of control after 1-2 rounds, and I found that it would be better if I rest for a few seconds instead of starting next round immediately.","0","0","0","2","1","2","1","1","3","0","0","1","0","1","0","0","0","1","2","0","0","0","2","2","0","1","2","0","3","3","2","1","2","0","1","2","2","3","0","1","1","2","1","2","0","1","1","3","4","2","2","3","3","4","1","2","1","0","1","2","3","3","2","187.60000002384186","","w","","true","0","2","down","up","2","e","0","0","1659114546545","","","true","60","2","0.016666666666666666","0.25","false"
"","html-keyboard-response","89","418361","0.0-6.0-1.3-0.3","021","19","F","1659114128625","q","q","Only if I get the answer right","Nothing","A fixed time limit","4","female","No","I felt my fingers were out of control after 1-2 rounds, and I found that it would be better if I rest for a few seconds instead of starting next round immediately.","0","0","0","2","1","2","1","1","3","0","0","1","0","1","0","0","0","1","2","0","0","0","2","2","0","1","2","0","3","3","2","1","2","0","1","2","2","3","0","1","1","2","1","2","0","1","1","3","4","2","2","3","3","4","1","2","1","0","1","2","3","3","2","null","<br><br><br><br><table><tr><td><img src=static/images/oddball_down.png></td><td><img src=static/images/oddball_up.png></td><td><img src=static/images/oddball_down.png></td></tr></table>","null","","","","","","","","","","","","","","","","","","",""
"","html-keyboard-response","90","418365","0.0-6.0-1.3-1.3","021","19","F","1659114128625","q","q","Only if I get the answer right","Nothing","A fixed time limit","4","female","No","I felt my fingers were out of control after 1-2 rounds, and I found that it would be better if I rest for a few seconds instead of starting next round immediately.","0","0","0","2","1","2","1","1","3","0","0","1","0","1","0","0","0","1","2","0","0","0","2","2","0","1","2","0","3","3","2","1","2","0","1","2","2","3","0","1","1","2","1","2","0","1","1","3","4","2","2","3","3","4","1","2","1","0","1","2","3","3","2","null","","null","","true","0","3","down","up","1","w","0","0","1659114547308","","","true","60","3","0.016666666666666666","0.25","true"
"","html-keyboard-response","91","418447","0.0-6.0-1.4-0.4","021","19","F","1659114128625","q","q","Only if I get the answer right","Nothing","A fixed time limit","4","female","No","I felt my fingers were out of control after 1-2 rounds, and I found that it would be better if I rest for a few seconds instead of starting next round immediately.","0","0","0","2","1","2","1","1","3","0","0","1","0","1","0","0","0","1","2","0","0","0","2","2","0","1","2","0","3","3","2","1","2","0","1","2","2","3","0","1","1","2","1","2","0","1","1","3","4","2","2","3","3","4","1","2","1","0","1","2","3","3","2","81.30000007152557","<br><br><br><br><table><tr><td><img src=static/images/oddball_down.png></td><td><img src=static/images/oddball_up.png></td><td><img src=static/images/oddball_down.png></td></tr></table>","87","1","","","","","","","","","","","","","","","","","",""
"","html-keyboard-response","92","418449","0.0-6.0-1.4-1.4","021","19","F","1659114128625","q","q","Only if I get the answer right","Nothing","A fixed time limit","4","female","No","I felt my fingers were out of control after 1-2 rounds, and I found that it would be better if I rest for a few seconds instead of starting next round immediately.","0","0","0","2","1","2","1","1","3","0","0","1","0","1","0","0","0","1","2","0","0","0","2","2","0","1","2","0","3","3","2","1","2","0","1","2","2","3","0","1","1","2","1","2","0","1","1","3","4","2","2","3","3","4","1","2","1","0","1","2","3","3","2","81.30000007152557","","w","","true","0","4","down","up","1","w","1","0","1659114547392","","","true","60","4","0.016666666666666666","0.25","false"
"","html-keyboard-response","93","419023","0.0-6.0-1.5-0.5","021","19","F","1659114128625","q","q","Only if I get the answer right","Nothing","A fixed time limit","4","female","No","I felt my fingers were out of control after 1-2 rounds, and I found that it would be better if I rest for a few seconds instead of starting next round immediately.","0","0","0","2","1","2","1","1","3","0","0","1","0","1","0","0","0","1","2","0","0","0","2","2","0","1","2","0","3","3","2","1","2","0","1","2","2","3","0","1","1","2","1","2","0","1","1","3","4","2","2","3","3","4","1","2","1","0","1","2","3","3","2","572.3999999761581","<br><br><br><br><table><tr><td><img src=static/images/oddball_up.png></td><td><img src=static/images/oddball_down.png></td><td><img src=static/images/oddball_up.png></td></tr></table>","87","1","","","","","","","","","","","","","","","","","",""
"","html-keyboard-response","94","419025","0.0-6.0-1.5-1.5","021","19","F","1659114128625","q","q","Only if I get the answer right","Nothing","A fixed time limit","4","female","No","I felt my fingers were out of control after 1-2 rounds, and I found that it would be better if I rest for a few seconds instead of starting next round immediately.","0","0","0","2","1","2","1","1","3","0","0","1","0","1","0","0","0","1","2","0","0","0","2","2","0","1","2","0","3","3","2","1","2","0","1","2","2","3","0","1","1","2","1","2","0","1","1","3","4","2","2","3","3","4","1","2","1","0","1","2","3","3","2","572.3999999761581","","w","","true","0","5","up","down","1","w","1","0","1659114547968","","","true","60","5","0.03333333333333333","0.25","false"
"","html-keyboard-response","95","419631","0.0-6.0-1.6-0.6","021","19","F","1659114128625","q","q","Only if I get the answer right","Nothing","A fixed time limit","4","female","No","I felt my fingers were out of control after 1-2 rounds, and I found that it would be better if I rest for a few seconds instead of starting next round immediately.","0","0","0","2","1","2","1","1","3","0","0","1","0","1","0","0","0","1","2","0","0","0","2","2","0","1","2","0","3","3","2","1","2","0","1","2","2","3","0","1","1","2","1","2","0","1","1","3","4","2","2","3","3","4","1","2","1","0","1","2","3","3","2","604.1000000238419","<br><br><br><br><table><tr><td><img src=static/images/oddball_up.png></td><td><img src=static/images/oddball_up.png></td><td><img src=static/images/oddball_down.png></td></tr></table>","69","1","","","","","","","","","","","","","","","","","",""
"","html-keyboard-response","96","419633","0.0-6.0-1.6-1.6","021","19","F","1659114128625","q","q","Only if I get the answer right","Nothing","A fixed time limit","4","female","No","I felt my fingers were out of control after 1-2 rounds, and I found that it would be better if I rest for a few seconds instead of starting next round immediately.","0","0","0","2","1","2","1","1","3","0","0","1","0","1","0","0","0","1","2","0","0","0","2","2","0","1","2","0","3","3","2","1","2","0","1","2","2","3","0","1","1","2","1","2","0","1","1","3","4","2","2","3","3","4","1","2","1","0","1","2","3","3","2","604.1000000238419","","e","","true","0","6","up","down","2","e","1","0","1659114548576","","","true","60","6","0.05","0.25","false"
"","html-keyboard-response","97","420151","0.0-6.0-1.7-0.7","021","19","F","1659114128625","q","q","Only if I get the answer right","Nothing","A fixed time limit","4","female","No","I felt my fingers were out of control after 1-2 rounds, and I found that it would be better if I rest for a few seconds instead of starting next round immediately.","0","0","0","2","1","2","1","1","3","0","0","1","0","1","0","0","0","1","2","0","0","0","2","2","0","1","2","0","3","3","2","1","2","0","1","2","2","3","0","1","1","2","1","2","0","1","1","3","4","2","2","3","3","4","1","2","1","0","1","2","3","3","2","516.3999999761581","<br><br><br><br><table><tr><td><img src=static/images/oddball_down.png></td><td><img src=static/images/oddball_down.png></td><td><img src=static/images/oddball_up.png></td></tr></table>","69","1","","","","","","","","","","","","","","","","","",""
"","html-keyboard-response","98","420153","0.0-6.0-1.7-1.7","021","19","F","1659114128625","q","q","Only if I get the answer right","Nothing","A fixed time limit","4","female","No","I felt my fingers were out of control after 1-2 rounds, and I found that it would be better if I rest for a few seconds instead of starting next round immediately.","0","0","0","2","1","2","1","1","3","0","0","1","0","1","0","0","0","1","2","0","0","0","2","2","0","1","2","0","3","3","2","1","2","0","1","2","2","3","0","1","1","2","1","2","0","1","1","3","4","2","2","3","3","4","1","2","1","0","1","2","3","3","2","516.3999999761581","","e","","true","0","7","down","up","2","e","1","0","1659114549096","","","true","60","7","0.06666666666666667","0.25","false"
"","html-keyboard-response","99","420735","0.0-6.0-1.8-0.8","021","19","F","1659114128625","q","q","Only if I get the answer right","Nothing","A fixed time limit","4","female","No","I felt my fingers were out of control after 1-2 rounds, and I found that it would be better if I rest for a few seconds instead of starting next round immediately.","0","0","0","2","1","2","1","1","3","0","0","1","0","1","0","0","0","1","2","0","0","0","2","2","0","1","2","0","3","3","2","1","2","0","1","2","2","3","0","1","1","2","1","2","0","1","1","3","4","2","2","3","3","4","1","2","1","0","1","2","3","3","2","580.4000000953674","<br><br><br><br><table><tr><td><img src=static/images/oddball_up.png></td><td><img src=static/images/oddball_down.png></td><td><img src=static/images/oddball_down.png></td></tr></table>","81","1","","","","","","","","","","","","","","","","","",""
"","html-keyboard-response","100","420737","0.0-6.0-1.8-1.8","021","19","F","1659114128625","q","q","Only if I get the answer right","Nothing","A fixed time limit","4","female","No","I felt my fingers were out of control after 1-2 rounds, and I found that it would be better if I rest for a few seconds instead of starting next round immediately.","0","0","0","2","1","2","1","1","3","0","0","1","0","1","0","0","0","1","2","0","0","0","2","2","0","1","2","0","3","3","2","1","2","0","1","2","2","3","0","1","1","2","1","2","0","1","1","3","4","2","2","3","3","4","1","2","1","0","1","2","3","3","2","580.4000000953674","","q","","true","0","8","down","up","0","q","1","0","1659114549680","","","true","60","8","0.08333333333333333","0.25","false"
"","html-keyboard-response","101","421254","0.0-6.0-1.9-0.9","021","19","F","1659114128625","q","q","Only if I get the answer right","Nothing","A fixed time limit","4","female","No","I felt my fingers were out of control after 1-2 rounds, and I found that it would be better if I rest for a few seconds instead of starting next round immediately.","0","0","0","2","1","2","1","1","3","0","0","1","0","1","0","0","0","1","2","0","0","0","2","2","0","1","2","0","3","3","2","1","2","0","1","2","2","3","0","1","1","2","1","2","0","1","1","3","4","2","2","3","3","4","1","2","1","0","1","2","3","3","2","515.6000000238419","<br><br><br><br><table><tr><td><img src=static/images/oddball_down.png></td><td><img src=static/images/oddball_down.png></td><td><img src=static/images/oddball_up.png></td></tr></table>","69","1","","","","","","","","","","","","","","","","","",""
"","html-keyboard-response","102","421257","0.0-6.0-1.9-1.9","021","19","F","1659114128625","q","q","Only if I get the answer right","Nothing","A fixed time limit","4","female","No","I felt my fingers were out of control after 1-2 rounds, and I found that it would be better if I rest for a few seconds instead of starting next round immediately.","0","0","0","2","1","2","1","1","3","0","0","1","0","1","0","0","0","1","2","0","0","0","2","2","0","1","2","0","3","3","2","1","2","0","1","2","2","3","0","1","1","2","1","2","0","1","1","3","4","2","2","3","3","4","1","2","1","0","1","2","3","3","2","515.6000000238419","","e","","true","0","9","down","up","2","e","1","0","1659114550200","","","true","60","9","0.1","0.25","false"
"","html-keyboard-response","103","421919","0.0-6.0-1.10-0.10","021","19","F","1659114128625","q","q","Only if I get the answer right","Nothing","A fixed time limit","4","female","No","I felt my fingers were out of control after 1-2 rounds, and I found that it would be better if I rest for a few seconds instead of starting next round immediately.","0","0","0","2","1","2","1","1","3","0","0","1","0","1","0","0","0","1","2","0","0","0","2","2","0","1","2","0","3","3","2","1","2","0","1","2","2","3","0","1","1","2","1","2","0","1","1","3","4","2","2","3","3","4","1","2","1","0","1","2","3","3","2","660.6000000238419","<br><br><br><br><table><tr><td><img src=static/images/oddball_up.png></td><td><img src=static/images/oddball_down.png></td><td><img src=static/images/oddball_up.png></td></tr></table>","87","1","","","","","","","","","","","","","","","","","",""
"","html-keyboard-response","104","421920","0.0-6.0-1.10-1.10","021","19","F","1659114128625","q","q","Only if I get the answer right","Nothing","A fixed time limit","4","female","No","I felt my fingers were out of control after 1-2 rounds, and I found that it would be better if I rest for a few seconds instead of starting next round immediately.","0","0","0","2","1","2","1","1","3","0","0","1","0","1","0","0","0","1","2","0","0","0","2","2","0","1","2","0","3","3","2","1","2","0","1","2","2","3","0","1","1","2","1","2","0","1","1","3","4","2","2","3","3","4","1","2","1","0","1","2","3","3","2","660.6000000238419","","w","","true","0","10","up","down","1","w","1","0","1659114550863","","","true","60","10","0.11666666666666667","0.25","false"
"","html-keyboard-response","105","422559","0.0-6.0-1.11-0.11","021","19","F","1659114128625","q","q","Only if I get the answer right","Nothing","A fixed time limit","4","female","No","I felt my fingers were out of control after 1-2 rounds, and I found that it would be better if I rest for a few seconds instead of starting next round immediately.","0","0","0","2","1","2","1","1","3","0","0","1","0","1","0","0","0","1","2","0","0","0","2","2","0","1","2","0","3","3","2","1","2","0","1","2","2","3","0","1","1","2","1","2","0","1","1","3","4","2","2","3","3","4","1","2","1","0","1","2","3","3","2","637.5999999046326","<br><br><br><br><table><tr><td><img src=static/images/oddball_up.png></td><td><img src=static/images/oddball_down.png></td><td><img src=static/images/oddball_down.png></td></tr></table>","81","1","","","","","","","","","","","","","","","","","",""
"","html-keyboard-response","106","422561","0.0-6.0-1.11-1.11","021","19","F","1659114128625","q","q","Only if I get the answer right","Nothing","A fixed time limit","4","female","No","I felt my fingers were out of control after 1-2 rounds, and I found that it would be better if I rest for a few seconds instead of starting next round immediately.","0","0","0","2","1","2","1","1","3","0","0","1","0","1","0","0","0","1","2","0","0","0","2","2","0","1","2","0","3","3","2","1","2","0","1","2","2","3","0","1","1","2","1","2","0","1","1","3","4","2","2","3","3","4","1","2","1","0","1","2","3","3","2","637.5999999046326","","q","","true","0","11","down","up","0","q","1","0","1659114551504","","","true","60","11","0.13333333333333333","0.25","false"
"","html-keyboard-response","107","423318","0.0-6.0-1.12-0.12","021","19","F","1659114128625","q","q","Only if I get the answer right","Nothing","A fixed time limit","4","female","No","I felt my fingers were out of control after 1-2 rounds, and I found that it would be better if I rest for a few seconds instead of starting next round immediately.","0","0","0","2","1","2","1","1","3","0","0","1","0","1","0","0","0","1","2","0","0","0","2","2","0","1","2","0","3","3","2","1","2","0","1","2","2","3","0","1","1","2","1","2","0","1","1","3","4","2","2","3","3","4","1","2","1","0","1","2","3","3","2","null","<br><br><br><br><table><tr><td><img src=static/images/oddball_up.png></td><td><img src=static/images/oddball_up.png></td><td><img src=static/images/oddball_down.png></td></tr></table>","null","","","","","","","","","","","","","","","","","","",""
"","html-keyboard-response","108","423321","0.0-6.0-1.12-1.12","021","19","F","1659114128625","q","q","Only if I get the answer right","Nothing","A fixed time limit","4","female","No","I felt my fingers were out of control after 1-2 rounds, and I found that it would be better if I rest for a few seconds instead of starting next round immediately.","0","0","0","2","1","2","1","1","3","0","0","1","0","1","0","0","0","1","2","0","0","0","2","2","0","1","2","0","3","3","2","1","2","0","1","2","2","3","0","1","1","2","1","2","0","1","1","3","4","2","2","3","3","4","1","2","1","0","1","2","3","3","2","null","","null","","true","0","12","up","down","2","e","0","0","1659114552264","","","true","60","12","0.15","0.25","true"
"","html-keyboard-response","109","423494","0.0-6.0-1.13-0.13","021","19","F","1659114128625","q","q","Only if I get the answer right","Nothing","A fixed time limit","4","female","No","I felt my fingers were out of control after 1-2 rounds, and I found that it would be better if I rest for a few seconds instead of starting next round immediately.","0","0","0","2","1","2","1","1","3","0","0","1","0","1","0","0","0","1","2","0","0","0","2","2","0","1","2","0","3","3","2","1","2","0","1","2","2","3","0","1","1","2","1","2","0","1","1","3","4","2","2","3","3","4","1","2","1","0","1","2","3","3","2","172.5","<br><br><br><br><table><tr><td><img src=static/images/oddball_up.png></td><td><img src=static/images/oddball_down.png></td><td><img src=static/images/oddball_up.png></td></tr></table>","69","1","","","","","","","","","","","","","","","","","",""
"","html-keyboard-response","110","423497","0.0-6.0-1.13-1.13","021","19","F","1659114128625","q","q","Only if I get the answer right","Nothing","A fixed time limit","4","female","No","I felt my fingers were out of control after 1-2 rounds, and I found that it would be better if I rest for a few seconds instead of starting next round immediately.","0","0","0","2","1","2","1","1","3","0","0","1","0","1","0","0","0","1","2","0","0","0","2","2","0","1","2","0","3","3","2","1","2","0","1","2","2","3","0","1","1","2","1","2","0","1","1","3","4","2","2","3","3","4","1","2","1","0","1","2","3","3","2","172.5","","e","","true","0","13","up","down","1","w","0","0","1659114552440","","","true","60","13","0.15","0.25","false"
"","html-keyboard-response","111","424174","0.0-6.0-1.14-0.14","021","19","F","1659114128625","q","q","Only if I get the answer right","Nothing","A fixed time limit","4","female","No","I felt my fingers were out of control after 1-2 rounds, and I found that it would be better if I rest for a few seconds instead of starting next round immediately.","0","0","0","2","1","2","1","1","3","0","0","1","0","1","0","0","0","1","2","0","0","0","2","2","0","1","2","0","3","3","2","1","2","0","1","2","2","3","0","1","1","2","1","2","0","1","1","3","4","2","2","3","3","4","1","2","1","0","1","2","3","3","2","676.6000000238419","<br><br><br><br><table><tr><td><img src=static/images/oddball_down.png></td><td><img src=static/images/oddball_up.png></td><td><img src=static/images/oddball_down.png></td></tr></table>","87","1","","","","","","","","","","","","","","","","","",""
"","html-keyboard-response","112","424178","0.0-6.0-1.14-1.14","021","19","F","1659114128625","q","q","Only if I get the answer right","Nothing","A fixed time limit","4","female","No","I felt my fingers were out of control after 1-2 rounds, and I found that it would be better if I rest for a few seconds instead of starting next round immediately.","0","0","0","2","1","2","1","1","3","0","0","1","0","1","0","0","0","1","2","0","0","0","2","2","0","1","2","0","3","3","2","1","2","0","1","2","2","3","0","1","1","2","1","2","0","1","1","3","4","2","2","3","3","4","1","2","1","0","1","2","3","3","2","676.6000000238419","","w","","true","0","14","down","up","1","w","1","0","1659114553121","","","true","60","14","0.15","0.25","false"
"","html-keyboard-response","113","424702","0.0-6.0-1.15-0.15","021","19","F","1659114128625","q","q","Only if I get the answer right","Nothing","A fixed time limit","4","female","No","I felt my fingers were out of control after 1-2 rounds, and I found that it would be better if I rest for a few seconds instead of starting next round immediately.","0","0","0","2","1","2","1","1","3","0","0","1","0","1","0","0","0","1","2","0","0","0","2","2","0","1","2","0","3","3","2","1","2","0","1","2","2","3","0","1","1","2","1","2","0","1","1","3","4","2","2","3","3","4","1","2","1","0","1","2","3","3","2","524.1000000238419","<br><br><br><br><table><tr><td><img src=static/images/oddball_up.png></td><td><img src=static/images/oddball_down.png></td><td><img src=static/images/oddball_up.png></td></tr></table>","87","1","","","","","","","","","","","","","","","","","",""
"","html-keyboard-response","114","424705","0.0-6.0-1.15-1.15","021","19","F","1659114128625","q","q","Only if I get the answer right","Nothing","A fixed time limit","4","female","No","I felt my fingers were out of control after 1-2 rounds, and I found that it would be better if I rest for a few seconds instead of starting next round immediately.","0","0","0","2","1","2","1","1","3","0","0","1","0","1","0","0","0","1","2","0","0","0","2","2","0","1","2","0","3","3","2","1","2","0","1","2","2","3","0","1","1","2","1","2","0","1","1","3","4","2","2","3","3","4","1","2","1","0","1","2","3","3","2","524.1000000238419","","w","","true","0","15","up","down","1","w","1","0","1659114553648","","","true","60","15","0.16666666666666666","0.25","false"
"","html-keyboard-response","115","425254","0.0-6.0-1.16-0.16","021","19","F","1659114128625","q","q","Only if I get the answer right","Nothing","A fixed time limit","4","female","No","I felt my fingers were out of control after 1-2 rounds, and I found that it would be better if I rest for a few seconds instead of starting next round immediately.","0","0","0","2","1","2","1","1","3","0","0","1","0","1","0","0","0","1","2","0","0","0","2","2","0","1","2","0","3","3","2","1","2","0","1","2","2","3","0","1","1","2","1","2","0","1","1","3","4","2","2","3","3","4","1","2","1","0","1","2","3","3","2","548.3000000715256","<br><br><br><br><table><tr><td><img src=static/images/oddball_up.png></td><td><img src=static/images/oddball_up.png></td><td><img src=static/images/oddball_down.png></td></tr></table>","69","1","","","","","","","","","","","","","","","","","",""
"","html-keyboard-response","116","425256","0.0-6.0-1.16-1.16","021","19","F","1659114128625","q","q","Only if I get the answer right","Nothing","A fixed time limit","4","female","No","I felt my fingers were out of control after 1-2 rounds, and I found that it would be better if I rest for a few seconds instead of starting next round immediately.","0","0","0","2","1","2","1","1","3","0","0","1","0","1","0","0","0","1","2","0","0","0","2","2","0","1","2","0","3","3","2","1","2","0","1","2","2","3","0","1","1","2","1","2","0","1","1","3","4","2","2","3","3","4","1","2","1","0","1","2","3","3","2","548.3000000715256","","e","","true","0","16","up","down","2","e","1","0","1659114554200","","","true","60","16","0.18333333333333332","0.25","false"
"","html-keyboard-response","117","426023","0.0-6.0-1.17-0.17","021","19","F","1659114128625","q","q","Only if I get the answer right","Nothing","A fixed time limit","4","female","No","I felt my fingers were out of control after 1-2 rounds, and I found that it would be better if I rest for a few seconds instead of starting next round immediately.","0","0","0","2","1","2","1","1","3","0","0","1","0","1","0","0","0","1","2","0","0","0","2","2","0","1","2","0","3","3","2","1","2","0","1","2","2","3","0","1","1","2","1","2","0","1","1","3","4","2","2","3","3","4","1","2","1","0","1","2","3","3","2","null","<br><br><br><br><table><tr><td><img src=static/images/oddball_down.png></td><td><img src=static/images/oddball_up.png></td><td><img src=static/images/oddball_up.png></td></tr></table>","null","","","","","","","","","","","","","","","","","","",""
"","html-keyboard-response","118","426025","0.0-6.0-1.17-1.17","021","19","F","1659114128625","q","q","Only if I get the answer right","Nothing","A fixed time limit","4","female","No","I felt my fingers were out of control after 1-2 rounds, and I found that it would be better if I rest for a few seconds instead of starting next round immediately.","0","0","0","2","1","2","1","1","3","0","0","1","0","1","0","0","0","1","2","0","0","0","2","2","0","1","2","0","3","3","2","1","2","0","1","2","2","3","0","1","1","2","1","2","0","1","1","3","4","2","2","3","3","4","1","2","1","0","1","2","3","3","2","null","","null","","true","0","17","up","down","0","q","0","0","1659114554968","","","true","60","17","0.2","0.25","true"
"","html-keyboard-response","119","426038","0.0-6.0-1.18-0.18","021","19","F","1659114128625","q","q","Only if I get the answer right","Nothing","A fixed time limit","4","female","No","I felt my fingers were out of control after 1-2 rounds, and I found that it would be better if I rest for a few seconds instead of starting next round immediately.","0","0","0","2","1","2","1","1","3","0","0","1","0","1","0","0","0","1","2","0","0","0","2","2","0","1","2","0","3","3","2","1","2","0","1","2","2","3","0","1","1","2","1","2","0","1","1","3","4","2","2","3","3","4","1","2","1","0","1","2","3","3","2","12.900000095367432","<br><br><br><br><table><tr><td><img src=static/images/oddball_up.png></td><td><img src=static/images/oddball_up.png></td><td><img src=static/images/oddball_down.png></td></tr></table>","81","1","","","","","","","","","","","","","","","","","",""
"","html-keyboard-response","120","426041","0.0-6.0-1.18-1.18","021","19","F","1659114128625","q","q","Only if I get the answer right","Nothing","A fixed time limit","4","female","No","I felt my fingers were out of control after 1-2 rounds, and I found that it would be better if I rest for a few seconds instead of starting next round immediately.","0","0","0","2","1","2","1","1","3","0","0","1","0","1","0","0","0","1","2","0","0","0","2","2","0","1","2","0","3","3","2","1","2","0","1","2","2","3","0","1","1","2","1","2","0","1","1","3","4","2","2","3","3","4","1","2","1","0","1","2","3","3","2","12.900000095367432","","q","","true","0","18","up","down","2","e","0","0","1659114554984","","","true","60","18","0.2","0.25","false"
"","html-keyboard-response","121","426567","0.0-6.0-1.19-0.19","021","19","F","1659114128625","q","q","Only if I get the answer right","Nothing","A fixed time limit","4","female","No","I felt my fingers were out of control after 1-2 rounds, and I found that it would be better if I rest for a few seconds instead of starting next round immediately.","0","0","0","2","1","2","1","1","3","0","0","1","0","1","0","0","0","1","2","0","0","0","2","2","0","1","2","0","3","3","2","1","2","0","1","2","2","3","0","1","1","2","1","2","0","1","1","3","4","2","2","3","3","4","1","2","1","0","1","2","3","3","2","524.6000000238419","<br><br><br><br><table><tr><td><img src=static/images/oddball_up.png></td><td><img src=static/images/oddball_down.png></td><td><img src=static/images/oddball_up.png></td></tr></table>","87","1","","","","","","","","","","","","","","","","","",""
"","html-keyboard-response","122","426569","0.0-6.0-1.19-1.19","021","19","F","1659114128625","q","q","Only if I get the answer right","Nothing","A fixed time limit","4","female","No","I felt my fingers were out of control after 1-2 rounds, and I found that it would be better if I rest for a few seconds instead of starting next round immediately.","0","0","0","2","1","2","1","1","3","0","0","1","0","1","0","0","0","1","2","0","0","0","2","2","0","1","2","0","3","3","2","1","2","0","1","2","2","3","0","1","1","2","1","2","0","1","1","3","4","2","2","3","3","4","1","2","1","0","1","2","3","3","2","524.6000000238419","","w","","true","0","19","up","down","1","w","1","0","1659114555512","","","true","60","19","0.2","0.25","false"
"","html-keyboard-response","123","427254","0.0-6.0-1.20-0.20","021","19","F","1659114128625","q","q","Only if I get the answer right","Nothing","A fixed time limit","4","female","No","I felt my fingers were out of control after 1-2 rounds, and I found that it would be better if I rest for a few seconds instead of starting next round immediately.","0","0","0","2","1","2","1","1","3","0","0","1","0","1","0","0","0","1","2","0","0","0","2","2","0","1","2","0","3","3","2","1","2","0","1","2","2","3","0","1","1","2","1","2","0","1","1","3","4","2","2","3","3","4","1","2","1","0","1","2","3","3","2","684.6000000238419","<br><br><br><br><table><tr><td><img src=static/images/oddball_up.png></td><td><img src=static/images/oddball_down.png></td><td><img src=static/images/oddball_down.png></td></tr></table>","81","1","","","","","","","","","","","","","","","","","",""
"","html-keyboard-response","124","427258","0.0-6.0-1.20-1.20","021","19","F","1659114128625","q","q","Only if I get the answer right","Nothing","A fixed time limit","4","female","No","I felt my fingers were out of control after 1-2 rounds, and I found that it would be better if I rest for a few seconds instead of starting next round immediately.","0","0","0","2","1","2","1","1","3","0","0","1","0","1","0","0","0","1","2","0","0","0","2","2","0","1","2","0","3","3","2","1","2","0","1","2","2","3","0","1","1","2","1","2","0","1","1","3","4","2","2","3","3","4","1","2","1","0","1","2","3","3","2","684.6000000238419","","q","","true","0","20","down","up","0","q","1","0","1659114556201","","","true","60","20","0.21666666666666667","0.25","false"
"","html-keyboard-response","125","427734","0.0-6.0-1.21-0.21","021","19","F","1659114128625","q","q","Only if I get the answer right","Nothing","A fixed time limit","4","female","No","I felt my fingers were out of control after 1-2 rounds, and I found that it would be better if I rest for a few seconds instead of starting next round immediately.","0","0","0","2","1","2","1","1","3","0","0","1","0","1","0","0","0","1","2","0","0","0","2","2","0","1","2","0","3","3","2","1","2","0","1","2","2","3","0","1","1","2","1","2","0","1","1","3","4","2","2","3","3","4","1","2","1","0","1","2","3","3","2","476.2000000476837","<br><br><br><br><table><tr><td><img src=static/images/oddball_down.png></td><td><img src=static/images/oddball_up.png></td><td><img src=static/images/oddball_up.png></td></tr></table>","81","1","","","","","","","","","","","","","","","","","",""
"","html-keyboard-response","126","427737","0.0-6.0-1.21-1.21","021","19","F","1659114128625","q","q","Only if I get the answer right","Nothing","A fixed time limit","4","female","No","I felt my fingers were out of control after 1-2 rounds, and I found that it would be better if I rest for a few seconds instead of starting next round immediately.","0","0","0","2","1","2","1","1","3","0","0","1","0","1","0","0","0","1","2","0","0","0","2","2","0","1","2","0","3","3","2","1","2","0","1","2","2","3","0","1","1","2","1","2","0","1","1","3","4","2","2","3","3","4","1","2","1","0","1","2","3","3","2","476.2000000476837","","q","","true","0","21","up","down","0","q","1","0","1659114556680","","","true","60","21","0.23333333333333334","0.25","false"
"","html-keyboard-response","127","428278","0.0-6.0-1.22-0.22","021","19","F","1659114128625","q","q","Only if I get the answer right","Nothing","A fixed time limit","4","female","No","I felt my fingers were out of control after 1-2 rounds, and I found that it would be better if I rest for a few seconds instead of starting next round immediately.","0","0","0","2","1","2","1","1","3","0","0","1","0","1","0","0","0","1","2","0","0","0","2","2","0","1","2","0","3","3","2","1","2","0","1","2","2","3","0","1","1","2","1","2","0","1","1","3","4","2","2","3","3","4","1","2","1","0","1","2","3","3","2","540.5","<br><br><br><br><table><tr><td><img src=static/images/oddball_down.png></td><td><img src=static/images/oddball_up.png></td><td><img src=static/images/oddball_up.png></td></tr></table>","81","1","","","","","","","","","","","","","","","","","",""
