"success","trial_type","trial_index","time_elapsed","internal_node_id","subject","age","sex","date","instQ1","instQ2","instQ3","instQ4","instQ5","totalInstQ","gender","strategy","comments","DASS1_s","DASS2_a","DASS3_d","DASS4_a","DASS5_d","DASS6_s","DASS7_a","DASS8_s","DASS9_a","DASS10_d","DASS11_s","DASS12_s","DASS13_d","DASS14_s","DASS15_a","DASS16_d","DASS17_d","DASS18_s","DASS19_a","DASS20_a","DASS21_d","BB1","BB2","BB3","BB4","BB5","BB6","BB7","BB8","BB9","BB10","BB11","BB12","BB13","BB14","BB15","BB16","BB17","BB18","BB19","BB20","BB21","BB22","BB23","BB24","NFC1","NFC2","NFC3","NFC4","NFC5","NFC6","NFC7","NFC8","NFC9","NFC10","NFC11","NFC12","NFC13","NFC14","NFC15","NFC16","NFC17","NFC18","rt","stimulus","key_press","npress","isDataTrial","block","trialinblock","common","odd","oddidx","correct_ans","accuracy","totalTokens","timestamp","responses","question_order","showprog","blocklen","trial","progress","reward","timedout"
"true","fullscreen","0","102305","0.0-0.0","008","23","f","1658764813341","q","q","Only if I get the answer right","You win money","A fixed time limit","5","female","Look at the odd white spot","This game is almost inhumanely impossible...","2","0","3","1","1","1","0","2","1","1","2","1","1","2","1","1","1","0","1","1","2","2","1","0","1","1","0","1","1","1","1","2","1","1","1","2","1","1","1","1","1","2","1","1","0","2","2","2","3","2","3","2","3","3","2","3","3","3","2","2","3","3","3","","","","","","","","","","","","","","","","","","","","","",""
"","image-keyboard-response","1","105043","0.0-1.0-0.0","008","23","f","1658764813341","q","q","Only if I get the answer right","You win money","A fixed time limit","5","female","Look at the odd white spot","This game is almost inhumanely impossible...","2","0","3","1","1","1","0","2","1","1","2","1","1","2","1","1","1","0","1","1","2","2","1","0","1","1","0","1","1","1","1","2","1","1","1","2","1","1","1","1","1","2","1","1","0","2","2","2","3","2","3","2","3","3","2","3","3","3","2","2","3","3","3","2737.0999999940395","static/images/instructions/Slide1.png","39","","","","","","","","","","","","","","","","","","",""
"","image-keyboard-response","2","111379","0.0-1.1-0.1","008","23","f","1658764813341","q","q","Only if I get the answer right","You win money","A fixed time limit","5","female","Look at the odd white spot","This game is almost inhumanely impossible...","2","0","3","1","1","1","0","2","1","1","2","1","1","2","1","1","1","0","1","1","2","2","1","0","1","1","0","1","1","1","1","2","1","1","1","2","1","1","1","1","1","2","1","1","0","2","2","2","3","2","3","2","3","3","2","3","3","3","2","2","3","3","3","6334.9000000059605","static/images/instructions/Slide2.png","39","","","","","","","","","","","","","","","","","","",""
"","image-keyboard-response","3","116227","0.0-1.2-0.2","008","23","f","1658764813341","q","q","Only if I get the answer right","You win money","A fixed time limit","5","female","Look at the odd white spot","This game is almost inhumanely impossible...","2","0","3","1","1","1","0","2","1","1","2","1","1","2","1","1","1","0","1","1","2","2","1","0","1","1","0","1","1","1","1","2","1","1","1","2","1","1","1","1","1","2","1","1","0","2","2","2","3","2","3","2","3","3","2","3","3","3","2","2","3","3","3","4847.299999982119","static/images/instructions/Slide3.png","39","","","","","","","","","","","","","","","","","","",""
"","image-keyboard-response","4","119763","0.0-1.3-0.3","008","23","f","1658764813341","q","q","Only if I get the answer right","You win money","A fixed time limit","5","female","Look at the odd white spot","This game is almost inhumanely impossible...","2","0","3","1","1","1","0","2","1","1","2","1","1","2","1","1","1","0","1","1","2","2","1","0","1","1","0","1","1","1","1","2","1","1","1","2","1","1","1","1","1","2","1","1","0","2","2","2","3","2","3","2","3","3","2","3","3","3","2","2","3","3","3","3534.9000000059605","static/images/instructions/Slide4.png","39","","","","","","","","","","","","","","","","","","",""
"","image-keyboard-response","5","123731","0.0-1.4-0.4","008","23","f","1658764813341","q","q","Only if I get the answer right","You win money","A fixed time limit","5","female","Look at the odd white spot","This game is almost inhumanely impossible...","2","0","3","1","1","1","0","2","1","1","2","1","1","2","1","1","1","0","1","1","2","2","1","0","1","1","0","1","1","1","1","2","1","1","1","2","1","1","1","1","1","2","1","1","0","2","2","2","3","2","3","2","3","3","2","3","3","3","2","2","3","3","3","3967.300000011921","static/images/instructions/Slide5.png","39","","","","","","","","","","","","","","","","","","",""
"","image-keyboard-response","6","125219","0.0-1.5-0.5","008","23","f","1658764813341","q","q","Only if I get the answer right","You win money","A fixed time limit","5","female","Look at the odd white spot","This game is almost inhumanely impossible...","2","0","3","1","1","1","0","2","1","1","2","1","1","2","1","1","1","0","1","1","2","2","1","0","1","1","0","1","1","1","1","2","1","1","1","2","1","1","1","1","1","2","1","1","0","2","2","2","3","2","3","2","3","3","2","3","3","3","2","2","3","3","3","1487.300000011921","static/images/instructions/Slide6.png","39","","","","","","","","","","","","","","","","","","",""
"","image-keyboard-response","7","131147","0.0-1.6-0.6","008","23","f","1658764813341","q","q","Only if I get the answer right","You win money","A fixed time limit","5","female","Look at the odd white spot","This game is almost inhumanely impossible...","2","0","3","1","1","1","0","2","1","1","2","1","1","2","1","1","1","0","1","1","2","2","1","0","1","1","0","1","1","1","1","2","1","1","1","2","1","1","1","1","1","2","1","1","0","2","2","2","3","2","3","2","3","3","2","3","3","3","2","2","3","3","3","5927.4000000059605","static/images/instructions/Slide7.png","39","","","","","","","","","","","","","","","","","","",""
"","html-keyboard-response","8","131874","0.0-2.0-0.0","008","23","f","1658764813341","q","q","Only if I get the answer right","You win money","A fixed time limit","5","female","Look at the odd white spot","This game is almost inhumanely impossible...","2","0","3","1","1","1","0","2","1","1","2","1","1","2","1","1","1","0","1","1","2","2","1","0","1","1","0","1","1","1","1","2","1","1","1","2","1","1","1","1","1","2","1","1","0","2","2","2","3","2","3","2","3","3","2","3","3","3","2","2","3","3","3","726.7000000178814","<br><br><br><br><table><tr><td><img src=static/images/oddball_down.png></td><td><img src=static/images/oddball_up.png></td><td><img src=static/images/oddball_down.png></td></tr></table>","87","1","","","","","","","","","","","","","","","","","",""
"","html-keyboard-response","9","134389","0.0-2.0-1.0","008","23","f","1658764813341","q","q","Only if I get the answer right","You win money","A fixed time limit","5","female","Look at the odd white spot","This game is almost inhumanely impossible...","2","0","3","1","1","1","0","2","1","1","2","1","1","2","1","1","1","0","1","1","2","2","1","0","1","1","0","1","1","1","1","2","1","1","1","2","1","1","1","1","1","2","1","1","0","2","2","2","3","2","3","2","3","3","2","3","3","3","2","2","3","3","3","null","<div style=""font-size:75px;""><b>Correct</b></div>","null","","","","","","","","","","","","","","","","","","",""
"","html-keyboard-response","10","135397","0.0-2.0-2.0","008","23","f","1658764813341","q","q","Only if I get the answer right","You win money","A fixed time limit","5","female","Look at the odd white spot","This game is almost inhumanely impossible...","2","0","3","1","1","1","0","2","1","1","2","1","1","2","1","1","1","0","1","1","2","2","1","0","1","1","0","1","1","1","1","2","1","1","1","2","1","1","1","1","1","2","1","1","0","2","2","2","3","2","3","2","3","3","2","3","3","3","2","2","3","3","3","726.7000000178814","","w","","true","practice","0","down","up","1","w","1","0","1658764949027","","","","","","","",""
"","html-keyboard-response","11","136059","0.0-2.1-0.1","008","23","f","1658764813341","q","q","Only if I get the answer right","You win money","A fixed time limit","5","female","Look at the odd white spot","This game is almost inhumanely impossible...","2","0","3","1","1","1","0","2","1","1","2","1","1","2","1","1","1","0","1","1","2","2","1","0","1","1","0","1","1","1","1","2","1","1","1","2","1","1","1","1","1","2","1","1","0","2","2","2","3","2","3","2","3","3","2","3","3","3","2","2","3","3","3","660.8999999761581","<br><br><br><br><table><tr><td><img src=static/images/oddball_down.png></td><td><img src=static/images/oddball_up.png></td><td><img src=static/images/oddball_up.png></td></tr></table>","81","1","","","","","","","","","","","","","","","","","",""
"","html-keyboard-response","12","138565","0.0-2.1-1.1","008","23","f","1658764813341","q","q","Only if I get the answer right","You win money","A fixed time limit","5","female","Look at the odd white spot","This game is almost inhumanely impossible...","2","0","3","1","1","1","0","2","1","1","2","1","1","2","1","1","1","0","1","1","2","2","1","0","1","1","0","1","1","1","1","2","1","1","1","2","1","1","1","1","1","2","1","1","0","2","2","2","3","2","3","2","3","3","2","3","3","3","2","2","3","3","3","null","<div style=""font-size:75px;""><b>Correct</b></div>","null","","","","","","","","","","","","","","","","","","",""
"","html-keyboard-response","13","139573","0.0-2.1-2.1","008","23","f","1658764813341","q","q","Only if I get the answer right","You win money","A fixed time limit","5","female","Look at the odd white spot","This game is almost inhumanely impossible...","2","0","3","1","1","1","0","2","1","1","2","1","1","2","1","1","1","0","1","1","2","2","1","0","1","1","0","1","1","1","1","2","1","1","1","2","1","1","1","1","1","2","1","1","0","2","2","2","3","2","3","2","3","3","2","3","3","3","2","2","3","3","3","660.8999999761581","","q","","true","practice","1","up","down","0","q","1","0","1658764953203","","","","","","","",""
"","html-keyboard-response","14","140099","0.0-2.2-0.2","008","23","f","1658764813341","q","q","Only if I get the answer right","You win money","A fixed time limit","5","female","Look at the odd white spot","This game is almost inhumanely impossible...","2","0","3","1","1","1","0","2","1","1","2","1","1","2","1","1","1","0","1","1","2","2","1","0","1","1","0","1","1","1","1","2","1","1","1","2","1","1","1","1","1","2","1","1","0","2","2","2","3","2","3","2","3","3","2","3","3","3","2","2","3","3","3","525.2999999821186","<br><br><br><br><table><tr><td><img src=static/images/oddball_down.png></td><td><img src=static/images/oddball_down.png></td><td><img src=static/images/oddball_up.png></td></tr></table>","69","1","","","","","","","","","","","","","","","","","",""
"","html-keyboard-response","15","142606","0.0-2.2-1.2","008","23","f","1658764813341","q","q","Only if I get the answer right","You win money","A fixed time limit","5","female","Look at the odd white spot","This game is almost inhumanely impossible...","2","0","3","1","1","1","0","2","1","1","2","1","1","2","1","1","1","0","1","1","2","2","1","0","1","1","0","1","1","1","1","2","1","1","1","2","1","1","1","1","1","2","1","1","0","2","2","2","3","2","3","2","3","3","2","3","3","3","2","2","3","3","3","null","<div style=""font-size:75px;""><b>Correct</b></div>","null","","","","","","","","","","","","","","","","","","",""
"","html-keyboard-response","16","143614","0.0-2.2-2.2","008","23","f","1658764813341","q","q","Only if I get the answer right","You win money","A fixed time limit","5","female","Look at the odd white spot","This game is almost inhumanely impossible...","2","0","3","1","1","1","0","2","1","1","2","1","1","2","1","1","1","0","1","1","2","2","1","0","1","1","0","1","1","1","1","2","1","1","1","2","1","1","1","1","1","2","1","1","0","2","2","2","3","2","3","2","3","3","2","3","3","3","2","2","3","3","3","525.2999999821186","","e","","true","practice","2","down","up","2","e","1","0","1658764957244","","","","","","","",""
"","html-keyboard-response","17","144139","0.0-2.3-0.3","008","23","f","1658764813341","q","q","Only if I get the answer right","You win money","A fixed time limit","5","female","Look at the odd white spot","This game is almost inhumanely impossible...","2","0","3","1","1","1","0","2","1","1","2","1","1","2","1","1","1","0","1","1","2","2","1","0","1","1","0","1","1","1","1","2","1","1","1","2","1","1","1","1","1","2","1","1","0","2","2","2","3","2","3","2","3","3","2","3","3","3","2","2","3","3","3","524.5","<br><br><br><br><table><tr><td><img src=static/images/oddball_up.png></td><td><img src=static/images/oddball_up.png></td><td><img src=static/images/oddball_down.png></td></tr></table>","69","1","","","","","","","","","","","","","","","","","",""
"","html-keyboard-response","18","146649","0.0-2.3-1.3","008","23","f","1658764813341","q","q","Only if I get the answer right","You win money","A fixed time limit","5","female","Look at the odd white spot","This game is almost inhumanely impossible...","2","0","3","1","1","1","0","2","1","1","2","1","1","2","1","1","1","0","1","1","2","2","1","0","1","1","0","1","1","1","1","2","1","1","1","2","1","1","1","1","1","2","1","1","0","2","2","2","3","2","3","2","3","3","2","3","3","3","2","2","3","3","3","null","<div style=""font-size:75px;""><b>Correct</b></div>","null","","","","","","","","","","","","","","","","","","",""
"","html-keyboard-response","19","147657","0.0-2.3-2.3","008","23","f","1658764813341","q","q","Only if I get the answer right","You win money","A fixed time limit","5","female","Look at the odd white spot","This game is almost inhumanely impossible...","2","0","3","1","1","1","0","2","1","1","2","1","1","2","1","1","1","0","1","1","2","2","1","0","1","1","0","1","1","1","1","2","1","1","1","2","1","1","1","1","1","2","1","1","0","2","2","2","3","2","3","2","3","3","2","3","3","3","2","2","3","3","3","524.5","","e","","true","practice","3","up","down","2","e","1","0","1658764961287","","","","","","","",""
"","html-keyboard-response","20","149067","0.0-2.4-0.4","008","23","f","1658764813341","q","q","Only if I get the answer right","You win money","A fixed time limit","5","female","Look at the odd white spot","This game is almost inhumanely impossible...","2","0","3","1","1","1","0","2","1","1","2","1","1","2","1","1","1","0","1","1","2","2","1","0","1","1","0","1","1","1","1","2","1","1","1","2","1","1","1","1","1","2","1","1","0","2","2","2","3","2","3","2","3","3","2","3","3","3","2","2","3","3","3","1409.2999999821186","<br><br><br><br><table><tr><td><img src=static/images/oddball_down.png></td><td><img src=static/images/oddball_up.png></td><td><img src=static/images/oddball_up.png></td></tr></table>","81","1","","","","","","","","","","","","","","","","","",""
"","html-keyboard-response","21","151574","0.0-2.4-1.4","008","23","f","1658764813341","q","q","Only if I get the answer right","You win money","A fixed time limit","5","female","Look at the odd white spot","This game is almost inhumanely impossible...","2","0","3","1","1","1","0","2","1","1","2","1","1","2","1","1","1","0","1","1","2","2","1","0","1","1","0","1","1","1","1","2","1","1","1","2","1","1","1","1","1","2","1","1","0","2","2","2","3","2","3","2","3","3","2","3","3","3","2","2","3","3","3","null","<div style=""font-size:75px;""><b>Correct</b></div>","null","","","","","","","","","","","","","","","","","","",""
"","html-keyboard-response","22","152579","0.0-2.4-2.4","008","23","f","1658764813341","q","q","Only if I get the answer right","You win money","A fixed time limit","5","female","Look at the odd white spot","This game is almost inhumanely impossible...","2","0","3","1","1","1","0","2","1","1","2","1","1","2","1","1","1","0","1","1","2","2","1","0","1","1","0","1","1","1","1","2","1","1","1","2","1","1","1","1","1","2","1","1","0","2","2","2","3","2","3","2","3","3","2","3","3","3","2","2","3","3","3","1409.2999999821186","","q","","true","practice","4","up","down","0","q","1","0","1658764966209","","","","","","","",""
"","html-keyboard-response","23","153763","0.0-2.5-0.5","008","23","f","1658764813341","q","q","Only if I get the answer right","You win money","A fixed time limit","5","female","Look at the odd white spot","This game is almost inhumanely impossible...","2","0","3","1","1","1","0","2","1","1","2","1","1","2","1","1","1","0","1","1","2","2","1","0","1","1","0","1","1","1","1","2","1","1","1","2","1","1","1","1","1","2","1","1","0","2","2","2","3","2","3","2","3","3","2","3","3","3","2","2","3","3","3","1182.9000000059605","<br><br><br><br><table><tr><td><img src=static/images/oddball_down.png></td><td><img src=static/images/oddball_up.png></td><td><img src=static/images/oddball_down.png></td></tr></table>","87","1","","","","","","","","","","","","","","","","","",""
"","html-keyboard-response","24","156267","0.0-2.5-1.5","008","23","f","1658764813341","q","q","Only if I get the answer right","You win money","A fixed time limit","5","female","Look at the odd white spot","This game is almost inhumanely impossible...","2","0","3","1","1","1","0","2","1","1","2","1","1","2","1","1","1","0","1","1","2","2","1","0","1","1","0","1","1","1","1","2","1","1","1","2","1","1","1","1","1","2","1","1","0","2","2","2","3","2","3","2","3","3","2","3","3","3","2","2","3","3","3","null","<div style=""font-size:75px;""><b>Correct</b></div>","null","","","","","","","","","","","","","","","","","","",""
"","html-keyboard-response","25","157276","0.0-2.5-2.5","008","23","f","1658764813341","q","q","Only if I get the answer right","You win money","A fixed time limit","5","female","Look at the odd white spot","This game is almost inhumanely impossible...","2","0","3","1","1","1","0","2","1","1","2","1","1","2","1","1","1","0","1","1","2","2","1","0","1","1","0","1","1","1","1","2","1","1","1","2","1","1","1","1","1","2","1","1","0","2","2","2","3","2","3","2","3","3","2","3","3","3","2","2","3","3","3","1182.9000000059605","","w","","true","practice","5","down","up","1","w","1","0","1658764970906","","","","","","","",""
"","html-keyboard-response","26","158131","0.0-2.6-0.6","008","23","f","1658764813341","q","q","Only if I get the answer right","You win money","A fixed time limit","5","female","Look at the odd white spot","This game is almost inhumanely impossible...","2","0","3","1","1","1","0","2","1","1","2","1","1","2","1","1","1","0","1","1","2","2","1","0","1","1","0","1","1","1","1","2","1","1","1","2","1","1","1","1","1","2","1","1","0","2","2","2","3","2","3","2","3","3","2","3","3","3","2","2","3","3","3","854.6999999880791","<br><br><br><br><table><tr><td><img src=static/images/oddball_up.png></td><td><img src=static/images/oddball_down.png></td><td><img src=static/images/oddball_down.png></td></tr></table>","81","1","","","","","","","","","","","","","","","","","",""
"","html-keyboard-response","27","160641","0.0-2.6-1.6","008","23","f","1658764813341","q","q","Only if I get the answer right","You win money","A fixed time limit","5","female","Look at the odd white spot","This game is almost inhumanely impossible...","2","0","3","1","1","1","0","2","1","1","2","1","1","2","1","1","1","0","1","1","2","2","1","0","1","1","0","1","1","1","1","2","1","1","1","2","1","1","1","1","1","2","1","1","0","2","2","2","3","2","3","2","3","3","2","3","3","3","2","2","3","3","3","null","<div style=""font-size:75px;""><b>Correct</b></div>","null","","","","","","","","","","","","","","","","","","",""
"","html-keyboard-response","28","161648","0.0-2.6-2.6","008","23","f","1658764813341","q","q","Only if I get the answer right","You win money","A fixed time limit","5","female","Look at the odd white spot","This game is almost inhumanely impossible...","2","0","3","1","1","1","0","2","1","1","2","1","1","2","1","1","1","0","1","1","2","2","1","0","1","1","0","1","1","1","1","2","1","1","1","2","1","1","1","1","1","2","1","1","0","2","2","2","3","2","3","2","3","3","2","3","3","3","2","2","3","3","3","854.6999999880791","","q","","true","practice","6","down","up","0","q","1","0","1658764975278","","","","","","","",""
"","html-keyboard-response","29","162627","0.0-2.7-0.7","008","23","f","1658764813341","q","q","Only if I get the answer right","You win money","A fixed time limit","5","female","Look at the odd white spot","This game is almost inhumanely impossible...","2","0","3","1","1","1","0","2","1","1","2","1","1","2","1","1","1","0","1","1","2","2","1","0","1","1","0","1","1","1","1","2","1","1","1","2","1","1","1","1","1","2","1","1","0","2","2","2","3","2","3","2","3","3","2","3","3","3","2","2","3","3","3","978.1999999880791","<br><br><br><br><table><tr><td><img src=static/images/oddball_up.png></td><td><img src=static/images/oddball_down.png></td><td><img src=static/images/oddball_up.png></td></tr></table>","87","1","","","","","","","","","","","","","","","","","",""
"","html-keyboard-response","30","165133","0.0-2.7-1.7","008","23","f","1658764813341","q","q","Only if I get the answer right","You win money","A fixed time limit","5","female","Look at the odd white spot","This game is almost inhumanely impossible...","2","0","3","1","1","1","0","2","1","1","2","1","1","2","1","1","1","0","1","1","2","2","1","0","1","1","0","1","1","1","1","2","1","1","1","2","1","1","1","1","1","2","1","1","0","2","2","2","3","2","3","2","3","3","2","3","3","3","2","2","3","3","3","null","<div style=""font-size:75px;""><b>Correct</b></div>","null","","","","","","","","","","","","","","","","","","",""
"","html-keyboard-response","31","166139","0.0-2.7-2.7","008","23","f","1658764813341","q","q","Only if I get the answer right","You win money","A fixed time limit","5","female","Look at the odd white spot","This game is almost inhumanely impossible...","2","0","3","1","1","1","0","2","1","1","2","1","1","2","1","1","1","0","1","1","2","2","1","0","1","1","0","1","1","1","1","2","1","1","1","2","1","1","1","1","1","2","1","1","0","2","2","2","3","2","3","2","3","3","2","3","3","3","2","2","3","3","3","978.1999999880791","","w","","true","practice","7","up","down","1","w","1","0","1658764979769","","","","","","","",""
"","html-keyboard-response","32","166931","0.0-2.8-0.8","008","23","f","1658764813341","q","q","Only if I get the answer right","You win money","A fixed time limit","5","female","Look at the odd white spot","This game is almost inhumanely impossible...","2","0","3","1","1","1","0","2","1","1","2","1","1","2","1","1","1","0","1","1","2","2","1","0","1","1","0","1","1","1","1","2","1","1","1","2","1","1","1","1","1","2","1","1","0","2","2","2","3","2","3","2","3","3","2","3","3","3","2","2","3","3","3","791.5999999940395","<br><br><br><br><table><tr><td><img src=static/images/oddball_up.png></td><td><img src=static/images/oddball_down.png></td><td><img src=static/images/oddball_up.png></td></tr></table>","87","1","","","","","","","","","","","","","","","","","",""
"","html-keyboard-response","33","169444","0.0-2.8-1.8","008","23","f","1658764813341","q","q","Only if I get the answer right","You win money","A fixed time limit","5","female","Look at the odd white spot","This game is almost inhumanely impossible...","2","0","3","1","1","1","0","2","1","1","2","1","1","2","1","1","1","0","1","1","2","2","1","0","1","1","0","1","1","1","1","2","1","1","1","2","1","1","1","1","1","2","1","1","0","2","2","2","3","2","3","2","3","3","2","3","3","3","2","2","3","3","3","null","<div style=""font-size:75px;""><b>Correct</b></div>","null","","","","","","","","","","","","","","","","","","",""
"","html-keyboard-response","34","170449","0.0-2.8-2.8","008","23","f","1658764813341","q","q","Only if I get the answer right","You win money","A fixed time limit","5","female","Look at the odd white spot","This game is almost inhumanely impossible...","2","0","3","1","1","1","0","2","1","1","2","1","1","2","1","1","1","0","1","1","2","2","1","0","1","1","0","1","1","1","1","2","1","1","1","2","1","1","1","1","1","2","1","1","0","2","2","2","3","2","3","2","3","3","2","3","3","3","2","2","3","3","3","791.5999999940395","","w","","true","practice","8","up","down","1","w","1","0","1658764984079","","","","","","","",""
"","html-keyboard-response","35","171859","0.0-2.9-0.9","008","23","f","1658764813341","q","q","Only if I get the answer right","You win money","A fixed time limit","5","female","Look at the odd white spot","This game is almost inhumanely impossible...","2","0","3","1","1","1","0","2","1","1","2","1","1","2","1","1","1","0","1","1","2","2","1","0","1","1","0","1","1","1","1","2","1","1","1","2","1","1","1","1","1","2","1","1","0","2","2","2","3","2","3","2","3","3","2","3","3","3","2","2","3","3","3","1409.199999988079","<br><br><br><br><table><tr><td><img src=static/images/oddball_down.png></td><td><img src=static/images/oddball_up.png></td><td><img src=static/images/oddball_down.png></td></tr></table>","87","1","","","","","","","","","","","","","","","","","",""
"","html-keyboard-response","36","174366","0.0-2.9-1.9","008","23","f","1658764813341","q","q","Only if I get the answer right","You win money","A fixed time limit","5","female","Look at the odd white spot","This game is almost inhumanely impossible...","2","0","3","1","1","1","0","2","1","1","2","1","1","2","1","1","1","0","1","1","2","2","1","0","1","1","0","1","1","1","1","2","1","1","1","2","1","1","1","1","1","2","1","1","0","2","2","2","3","2","3","2","3","3","2","3","3","3","2","2","3","3","3","null","<div style=""font-size:75px;""><b>Correct</b></div>","null","","","","","","","","","","","","","","","","","","",""
"","html-keyboard-response","37","175374","0.0-2.9-2.9","008","23","f","1658764813341","q","q","Only if I get the answer right","You win money","A fixed time limit","5","female","Look at the odd white spot","This game is almost inhumanely impossible...","2","0","3","1","1","1","0","2","1","1","2","1","1","2","1","1","1","0","1","1","2","2","1","0","1","1","0","1","1","1","1","2","1","1","1","2","1","1","1","1","1","2","1","1","0","2","2","2","3","2","3","2","3","3","2","3","3","3","2","2","3","3","3","1409.199999988079","","w","","true","practice","9","down","up","1","w","1","0","1658764989004","","","","","","","",""
"","html-keyboard-response","38","175947","0.0-2.10-0.10","008","23","f","1658764813341","q","q","Only if I get the answer right","You win money","A fixed time limit","5","female","Look at the odd white spot","This game is almost inhumanely impossible...","2","0","3","1","1","1","0","2","1","1","2","1","1","2","1","1","1","0","1","1","2","2","1","0","1","1","0","1","1","1","1","2","1","1","1","2","1","1","1","1","1","2","1","1","0","2","2","2","3","2","3","2","3","3","2","3","3","3","2","2","3","3","3","572.2999999821186","<br><br><br><br><table><tr><td><img src=static/images/oddball_up.png></td><td><img src=static/images/oddball_up.png></td><td><img src=static/images/oddball_down.png></td></tr></table>","69","1","","","","","","","","","","","","","","","","","",""
"","html-keyboard-response","39","178458","0.0-2.10-1.10","008","23","f","1658764813341","q","q","Only if I get the answer right","You win money","A fixed time limit","5","female","Look at the odd white spot","This game is almost inhumanely impossible...","2","0","3","1","1","1","0","2","1","1","2","1","1","2","1","1","1","0","1","1","2","2","1","0","1","1","0","1","1","1","1","2","1","1","1","2","1","1","1","1","1","2","1","1","0","2","2","2","3","2","3","2","3","3","2","3","3","3","2","2","3","3","3","null","<div style=""font-size:75px;""><b>Correct</b></div>","null","","","","","","","","","","","","","","","","","","",""
"","html-keyboard-response","40","179464","0.0-2.10-2.10","008","23","f","1658764813341","q","q","Only if I get the answer right","You win money","A fixed time limit","5","female","Look at the odd white spot","This game is almost inhumanely impossible...","2","0","3","1","1","1","0","2","1","1","2","1","1","2","1","1","1","0","1","1","2","2","1","0","1","1","0","1","1","1","1","2","1","1","1","2","1","1","1","1","1","2","1","1","0","2","2","2","3","2","3","2","3","3","2","3","3","3","2","2","3","3","3","572.2999999821186","","e","","true","practice","10","up","down","2","e","1","0","1658764993094","","","","","","","",""
"","html-keyboard-response","41","180155","0.0-2.11-0.11","008","23","f","1658764813341","q","q","Only if I get the answer right","You win money","A fixed time limit","5","female","Look at the odd white spot","This game is almost inhumanely impossible...","2","0","3","1","1","1","0","2","1","1","2","1","1","2","1","1","1","0","1","1","2","2","1","0","1","1","0","1","1","1","1","2","1","1","1","2","1","1","1","1","1","2","1","1","0","2","2","2","3","2","3","2","3","3","2","3","3","3","2","2","3","3","3","690.5","<br><br><br><br><table><tr><td><img src=static/images/oddball_up.png></td><td><img src=static/images/oddball_down.png></td><td><img src=static/images/oddball_down.png></td></tr></table>","81","1","","","","","","","","","","","","","","","","","",""
"","html-keyboard-response","42","182666","0.0-2.11-1.11","008","23","f","1658764813341","q","q","Only if I get the answer right","You win money","A fixed time limit","5","female","Look at the odd white spot","This game is almost inhumanely impossible...","2","0","3","1","1","1","0","2","1","1","2","1","1","2","1","1","1","0","1","1","2","2","1","0","1","1","0","1","1","1","1","2","1","1","1","2","1","1","1","1","1","2","1","1","0","2","2","2","3","2","3","2","3","3","2","3","3","3","2","2","3","3","3","null","<div style=""font-size:75px;""><b>Correct</b></div>","null","","","","","","","","","","","","","","","","","","",""
"","html-keyboard-response","43","183677","0.0-2.11-2.11","008","23","f","1658764813341","q","q","Only if I get the answer right","You win money","A fixed time limit","5","female","Look at the odd white spot","This game is almost inhumanely impossible...","2","0","3","1","1","1","0","2","1","1","2","1","1","2","1","1","1","0","1","1","2","2","1","0","1","1","0","1","1","1","1","2","1","1","1","2","1","1","1","1","1","2","1","1","0","2","2","2","3","2","3","2","3","3","2","3","3","3","2","2","3","3","3","690.5","","q","","true","practice","11","down","up","0","q","1","0","1658764997308","","","","","","","",""
"","html-keyboard-response","44","184227","0.0-2.12-0.12","008","23","f","1658764813341","q","q","Only if I get the answer right","You win money","A fixed time limit","5","female","Look at the odd white spot","This game is almost inhumanely impossible...","2","0","3","1","1","1","0","2","1","1","2","1","1","2","1","1","1","0","1","1","2","2","1","0","1","1","0","1","1","1","1","2","1","1","1","2","1","1","1","1","1","2","1","1","0","2","2","2","3","2","3","2","3","3","2","3","3","3","2","2","3","3","3","548.8999999761581","<br><br><br><br><table><tr><td><img src=static/images/oddball_down.png></td><td><img src=static/images/oddball_down.png></td><td><img src=static/images/oddball_up.png></td></tr></table>","69","1","","","","","","","","","","","","","","","","","",""
"","html-keyboard-response","45","186741","0.0-2.12-1.12","008","23","f","1658764813341","q","q","Only if I get the answer right","You win money","A fixed time limit","5","female","Look at the odd white spot","This game is almost inhumanely impossible...","2","0","3","1","1","1","0","2","1","1","2","1","1","2","1","1","1","0","1","1","2","2","1","0","1","1","0","1","1","1","1","2","1","1","1","2","1","1","1","1","1","2","1","1","0","2","2","2","3","2","3","2","3","3","2","3","3","3","2","2","3","3","3","null","<div style=""font-size:75px;""><b>Correct</b></div>","null","","","","","","","","","","","","","","","","","","",""
"","html-keyboard-response","46","187748","0.0-2.12-2.12","008","23","f","1658764813341","q","q","Only if I get the answer right","You win money","A fixed time limit","5","female","Look at the odd white spot","This game is almost inhumanely impossible...","2","0","3","1","1","1","0","2","1","1","2","1","1","2","1","1","1","0","1","1","2","2","1","0","1","1","0","1","1","1","1","2","1","1","1","2","1","1","1","1","1","2","1","1","0","2","2","2","3","2","3","2","3","3","2","3","3","3","2","2","3","3","3","548.8999999761581","","e","","true","practice","12","down","up","2","e","1","0","1658765001378","","","","","","","",""
"","html-keyboard-response","47","188251","0.0-2.13-0.13","008","23","f","1658764813341","q","q","Only if I get the answer right","You win money","A fixed time limit","5","female","Look at the odd white spot","This game is almost inhumanely impossible...","2","0","3","1","1","1","0","2","1","1","2","1","1","2","1","1","1","0","1","1","2","2","1","0","1","1","0","1","1","1","1","2","1","1","1","2","1","1","1","1","1","2","1","1","0","2","2","2","3","2","3","2","3","3","2","3","3","3","2","2","3","3","3","502.90000000596046","<br><br><br><br><table><tr><td><img src=static/images/oddball_up.png></td><td><img src=static/images/oddball_down.png></td><td><img src=static/images/oddball_down.png></td></tr></table>","81","1","","","","","","","","","","","","","","","","","",""
"","html-keyboard-response","48","190759","0.0-2.13-1.13","008","23","f","1658764813341","q","q","Only if I get the answer right","You win money","A fixed time limit","5","female","Look at the odd white spot","This game is almost inhumanely impossible...","2","0","3","1","1","1","0","2","1","1","2","1","1","2","1","1","1","0","1","1","2","2","1","0","1","1","0","1","1","1","1","2","1","1","1","2","1","1","1","1","1","2","1","1","0","2","2","2","3","2","3","2","3","3","2","3","3","3","2","2","3","3","3","null","<div style=""font-size:75px;""><b>Correct</b></div>","null","","","","","","","","","","","","","","","","","","",""
"","html-keyboard-response","49","191773","0.0-2.13-2.13","008","23","f","1658764813341","q","q","Only if I get the answer right","You win money","A fixed time limit","5","female","Look at the odd white spot","This game is almost inhumanely impossible...","2","0","3","1","1","1","0","2","1","1","2","1","1","2","1","1","1","0","1","1","2","2","1","0","1","1","0","1","1","1","1","2","1","1","1","2","1","1","1","1","1","2","1","1","0","2","2","2","3","2","3","2","3","3","2","3","3","3","2","2","3","3","3","502.90000000596046","","q","","true","practice","13","down","up","0","q","1","0","1658765005404","","","","","","","",""
"","html-keyboard-response","50","192323","0.0-2.14-0.14","008","23","f","1658764813341","q","q","Only if I get the answer right","You win money","A fixed time limit","5","female","Look at the odd white spot","This game is almost inhumanely impossible...","2","0","3","1","1","1","0","2","1","1","2","1","1","2","1","1","1","0","1","1","2","2","1","0","1","1","0","1","1","1","1","2","1","1","1","2","1","1","1","1","1","2","1","1","0","2","2","2","3","2","3","2","3","3","2","3","3","3","2","2","3","3","3","548.8000000119209","<br><br><br><br><table><tr><td><img src=static/images/oddball_up.png></td><td><img src=static/images/oddball_down.png></td><td><img src=static/images/oddball_up.png></td></tr></table>","87","1","","","","","","","","","","","","","","","","","",""
"","html-keyboard-response","51","194824","0.0-2.14-1.14","008","23","f","1658764813341","q","q","Only if I get the answer right","You win money","A fixed time limit","5","female","Look at the odd white spot","This game is almost inhumanely impossible...","2","0","3","1","1","1","0","2","1","1","2","1","1","2","1","1","1","0","1","1","2","2","1","0","1","1","0","1","1","1","1","2","1","1","1","2","1","1","1","1","1","2","1","1","0","2","2","2","3","2","3","2","3","3","2","3","3","3","2","2","3","3","3","null","<div style=""font-size:75px;""><b>Correct</b></div>","null","","","","","","","","","","","","","","","","","","",""
"","html-keyboard-response","52","195832","0.0-2.14-2.14","008","23","f","1658764813341","q","q","Only if I get the answer right","You win money","A fixed time limit","5","female","Look at the odd white spot","This game is almost inhumanely impossible...","2","0","3","1","1","1","0","2","1","1","2","1","1","2","1","1","1","0","1","1","2","2","1","0","1","1","0","1","1","1","1","2","1","1","1","2","1","1","1","1","1","2","1","1","0","2","2","2","3","2","3","2","3","3","2","3","3","3","2","2","3","3","3","548.8000000119209","","w","","true","practice","14","up","down","1","w","1","0","1658765009462","","","","","","","",""
"","html-keyboard-response","53","196347","0.0-2.15-0.15","008","23","f","1658764813341","q","q","Only if I get the answer right","You win money","A fixed time limit","5","female","Look at the odd white spot","This game is almost inhumanely impossible...","2","0","3","1","1","1","0","2","1","1","2","1","1","2","1","1","1","0","1","1","2","2","1","0","1","1","0","1","1","1","1","2","1","1","1","2","1","1","1","1","1","2","1","1","0","2","2","2","3","2","3","2","3","3","2","3","3","3","2","2","3","3","3","514.6999999880791","<br><br><br><br><table><tr><td><img src=static/images/oddball_up.png></td><td><img src=static/images/oddball_down.png></td><td><img src=static/images/oddball_down.png></td></tr></table>","81","1","","","","","","","","","","","","","","","","","",""
"","html-keyboard-response","54","198849","0.0-2.15-1.15","008","23","f","1658764813341","q","q","Only if I get the answer right","You win money","A fixed time limit","5","female","Look at the odd white spot","This game is almost inhumanely impossible...","2","0","3","1","1","1","0","2","1","1","2","1","1","2","1","1","1","0","1","1","2","2","1","0","1","1","0","1","1","1","1","2","1","1","1","2","1","1","1","1","1","2","1","1","0","2","2","2","3","2","3","2","3","3","2","3","3","3","2","2","3","3","3","null","<div style=""font-size:75px;""><b>Correct</b></div>","null","","","","","","","","","","","","","","","","","","",""
"","html-keyboard-response","55","199855","0.0-2.15-2.15","008","23","f","1658764813341","q","q","Only if I get the answer right","You win money","A fixed time limit","5","female","Look at the odd white spot","This game is almost inhumanely impossible...","2","0","3","1","1","1","0","2","1","1","2","1","1","2","1","1","1","0","1","1","2","2","1","0","1","1","0","1","1","1","1","2","1","1","1","2","1","1","1","1","1","2","1","1","0","2","2","2","3","2","3","2","3","3","2","3","3","3","2","2","3","3","3","514.6999999880791","","q","","true","practice","15","down","up","0","q","1","0","1658765013485","","","","","","","",""
"","html-keyboard-response","56","200378","0.0-2.16-0.16","008","23","f","1658764813341","q","q","Only if I get the answer right","You win money","A fixed time limit","5","female","Look at the odd white spot","This game is almost inhumanely impossible...","2","0","3","1","1","1","0","2","1","1","2","1","1","2","1","1","1","0","1","1","2","2","1","0","1","1","0","1","1","1","1","2","1","1","1","2","1","1","1","1","1","2","1","1","0","2","2","2","3","2","3","2","3","3","2","3","3","3","2","2","3","3","3","523.0999999940395","<br><br><br><br><table><tr><td><img src=static/images/oddball_up.png></td><td><img src=static/images/oddball_down.png></td><td><img src=static/images/oddball_up.png></td></tr></table>","87","1","","","","","","","","","","","","","","","","","",""
"","html-keyboard-response","57","202888","0.0-2.16-1.16","008","23","f","1658764813341","q","q","Only if I get the answer right","You win money","A fixed time limit","5","female","Look at the odd white spot","This game is almost inhumanely impossible...","2","0","3","1","1","1","0","2","1","1","2","1","1","2","1","1","1","0","1","1","2","2","1","0","1","1","0","1","1","1","1","2","1","1","1","2","1","1","1","1","1","2","1","1","0","2","2","2","3","2","3","2","3","3","2","3","3","3","2","2","3","3","3","null","<div style=""font-size:75px;""><b>Correct</b></div>","null","","","","","","","","","","","","","","","","","","",""
"","html-keyboard-response","58","203903","0.0-2.16-2.16","008","23","f","1658764813341","q","q","Only if I get the answer right","You win money","A fixed time limit","5","female","Look at the odd white spot","This game is almost inhumanely impossible...","2","0","3","1","1","1","0","2","1","1","2","1","1","2","1","1","1","0","1","1","2","2","1","0","1","1","0","1","1","1","1","2","1","1","1","2","1","1","1","1","1","2","1","1","0","2","2","2","3","2","3","2","3","3","2","3","3","3","2","2","3","3","3","523.0999999940395","","w","","true","practice","16","up","down","1","w","1","0","1658765017533","","","","","","","",""
"","html-keyboard-response","59","204419","0.0-2.17-0.17","008","23","f","1658764813341","q","q","Only if I get the answer right","You win money","A fixed time limit","5","female","Look at the odd white spot","This game is almost inhumanely impossible...","2","0","3","1","1","1","0","2","1","1","2","1","1","2","1","1","1","0","1","1","2","2","1","0","1","1","0","1","1","1","1","2","1","1","1","2","1","1","1","1","1","2","1","1","0","2","2","2","3","2","3","2","3","3","2","3","3","3","2","2","3","3","3","515.3000000119209","<br><br><br><br><table><tr><td><img src=static/images/oddball_down.png></td><td><img src=static/images/oddball_down.png></td><td><img src=static/images/oddball_up.png></td></tr></table>","69","1","","","","","","","","","","","","","","","","","",""
"","html-keyboard-response","60","206929","0.0-2.17-1.17","008","23","f","1658764813341","q","q","Only if I get the answer right","You win money","A fixed time limit","5","female","Look at the odd white spot","This game is almost inhumanely impossible...","2","0","3","1","1","1","0","2","1","1","2","1","1","2","1","1","1","0","1","1","2","2","1","0","1","1","0","1","1","1","1","2","1","1","1","2","1","1","1","1","1","2","1","1","0","2","2","2","3","2","3","2","3","3","2","3","3","3","2","2","3","3","3","null","<div style=""font-size:75px;""><b>Correct</b></div>","null","","","","","","","","","","","","","","","","","","",""
"","html-keyboard-response","61","207935","0.0-2.17-2.17","008","23","f","1658764813341","q","q","Only if I get the answer right","You win money","A fixed time limit","5","female","Look at the odd white spot","This game is almost inhumanely impossible...","2","0","3","1","1","1","0","2","1","1","2","1","1","2","1","1","1","0","1","1","2","2","1","0","1","1","0","1","1","1","1","2","1","1","1","2","1","1","1","1","1","2","1","1","0","2","2","2","3","2","3","2","3","3","2","3","3","3","2","2","3","3","3","515.3000000119209","","e","","true","practice","17","down","up","2","e","1","0","1658765021565","","","","","","","",""
"","html-keyboard-response","62","208515","0.0-2.18-0.18","008","23","f","1658764813341","q","q","Only if I get the answer right","You win money","A fixed time limit","5","female","Look at the odd white spot","This game is almost inhumanely impossible...","2","0","3","1","1","1","0","2","1","1","2","1","1","2","1","1","1","0","1","1","2","2","1","0","1","1","0","1","1","1","1","2","1","1","1","2","1","1","1","1","1","2","1","1","0","2","2","2","3","2","3","2","3","3","2","3","3","3","2","2","3","3","3","578.9000000059605","<br><br><br><br><table><tr><td><img src=static/images/oddball_down.png></td><td><img src=static/images/oddball_up.png></td><td><img src=static/images/oddball_down.png></td></tr></table>","87","1","","","","","","","","","","","","","","","","","",""
"","html-keyboard-response","63","211018","0.0-2.18-1.18","008","23","f","1658764813341","q","q","Only if I get the answer right","You win money","A fixed time limit","5","female","Look at the odd white spot","This game is almost inhumanely impossible...","2","0","3","1","1","1","0","2","1","1","2","1","1","2","1","1","1","0","1","1","2","2","1","0","1","1","0","1","1","1","1","2","1","1","1","2","1","1","1","1","1","2","1","1","0","2","2","2","3","2","3","2","3","3","2","3","3","3","2","2","3","3","3","null","<div style=""font-size:75px;""><b>Correct</b></div>","null","","","","","","","","","","","","","","","","","","",""
"","html-keyboard-response","64","212026","0.0-2.18-2.18","008","23","f","1658764813341","q","q","Only if I get the answer right","You win money","A fixed time limit","5","female","Look at the odd white spot","This game is almost inhumanely impossible...","2","0","3","1","1","1","0","2","1","1","2","1","1","2","1","1","1","0","1","1","2","2","1","0","1","1","0","1","1","1","1","2","1","1","1","2","1","1","1","1","1","2","1","1","0","2","2","2","3","2","3","2","3","3","2","3","3","3","2","2","3","3","3","578.9000000059605","","w","","true","practice","18","down","up","1","w","1","0","1658765025656","","","","","","","",""
"","html-keyboard-response","65","212483","0.0-2.19-0.19","008","23","f","1658764813341","q","q","Only if I get the answer right","You win money","A fixed time limit","5","female","Look at the odd white spot","This game is almost inhumanely impossible...","2","0","3","1","1","1","0","2","1","1","2","1","1","2","1","1","1","0","1","1","2","2","1","0","1","1","0","1","1","1","1","2","1","1","1","2","1","1","1","1","1","2","1","1","0","2","2","2","3","2","3","2","3","3","2","3","3","3","2","2","3","3","3","456.40000000596046","<br><br><br><br><table><tr><td><img src=static/images/oddball_up.png></td><td><img src=static/images/oddball_down.png></td><td><img src=static/images/oddball_down.png></td></tr></table>","81","1","","","","","","","","","","","","","","","","","",""
"","html-keyboard-response","66","214992","0.0-2.19-1.19","008","23","f","1658764813341","q","q","Only if I get the answer right","You win money","A fixed time limit","5","female","Look at the odd white spot","This game is almost inhumanely impossible...","2","0","3","1","1","1","0","2","1","1","2","1","1","2","1","1","1","0","1","1","2","2","1","0","1","1","0","1","1","1","1","2","1","1","1","2","1","1","1","1","1","2","1","1","0","2","2","2","3","2","3","2","3","3","2","3","3","3","2","2","3","3","3","null","<div style=""font-size:75px;""><b>Correct</b></div>","null","","","","","","","","","","","","","","","","","","",""
"","html-keyboard-response","67","216001","0.0-2.19-2.19","008","23","f","1658764813341","q","q","Only if I get the answer right","You win money","A fixed time limit","5","female","Look at the odd white spot","This game is almost inhumanely impossible...","2","0","3","1","1","1","0","2","1","1","2","1","1","2","1","1","1","0","1","1","2","2","1","0","1","1","0","1","1","1","1","2","1","1","1","2","1","1","1","1","1","2","1","1","0","2","2","2","3","2","3","2","3","3","2","3","3","3","2","2","3","3","3","456.40000000596046","","q","","true","practice","19","down","up","0","q","1","0","1658765029631","","","","","","","",""
"","image-keyboard-response","68","219927","0.0-3.0-0.0","008","23","f","1658764813341","q","q","Only if I get the answer right","You win money","A fixed time limit","5","female","Look at the odd white spot","This game is almost inhumanely impossible...","2","0","3","1","1","1","0","2","1","1","2","1","1","2","1","1","1","0","1","1","2","2","1","0","1","1","0","1","1","1","1","2","1","1","1","2","1","1","1","1","1","2","1","1","0","2","2","2","3","2","3","2","3","3","2","3","3","3","2","2","3","3","3","3929.5999999940395","static/images/instructions/Slide8.png","39","","","","","","","","","","","","","","","","","","",""
"","image-keyboard-response","69","234263","0.0-3.1-0.1","008","23","f","1658764813341","q","q","Only if I get the answer right","You win money","A fixed time limit","5","female","Look at the odd white spot","This game is almost inhumanely impossible...","2","0","3","1","1","1","0","2","1","1","2","1","1","2","1","1","1","0","1","1","2","2","1","0","1","1","0","1","1","1","1","2","1","1","1","2","1","1","1","1","1","2","1","1","0","2","2","2","3","2","3","2","3","3","2","3","3","3","2","2","3","3","3","14335","static/images/instructions/Slide9.png","39","","","","","","","","","","","","","","","","","","",""
"","image-keyboard-response","70","238511","0.0-3.2-0.2","008","23","f","1658764813341","q","q","Only if I get the answer right","You win money","A fixed time limit","5","female","Look at the odd white spot","This game is almost inhumanely impossible...","2","0","3","1","1","1","0","2","1","1","2","1","1","2","1","1","1","0","1","1","2","2","1","0","1","1","0","1","1","1","1","2","1","1","1","2","1","1","1","1","1","2","1","1","0","2","2","2","3","2","3","2","3","3","2","3","3","3","2","2","3","3","3","4247.5999999940395","static/images/instructions/Slide10.png","39","","","","","","","","","","","","","","","","","","",""
"","image-keyboard-response","71","245583","0.0-3.3-0.3","008","23","f","1658764813341","q","q","Only if I get the answer right","You win money","A fixed time limit","5","female","Look at the odd white spot","This game is almost inhumanely impossible...","2","0","3","1","1","1","0","2","1","1","2","1","1","2","1","1","1","0","1","1","2","2","1","0","1","1","0","1","1","1","1","2","1","1","1","2","1","1","1","1","1","2","1","1","0","2","2","2","3","2","3","2","3","3","2","3","3","3","2","2","3","3","3","7071.4000000059605","static/images/instructions/Slide11.png","39","","","","","","","","","","","","","","","","","","",""
"","image-keyboard-response","72","247975","0.0-3.4-0.4","008","23","f","1658764813341","q","q","Only if I get the answer right","You win money","A fixed time limit","5","female","Look at the odd white spot","This game is almost inhumanely impossible...","2","0","3","1","1","1","0","2","1","1","2","1","1","2","1","1","1","0","1","1","2","2","1","0","1","1","0","1","1","1","1","2","1","1","1","2","1","1","1","1","1","2","1","1","0","2","2","2","3","2","3","2","3","3","2","3","3","3","2","2","3","3","3","2391.0999999940395","static/images/instructions/Slide12.png","39","","","","","","","","","","","","","","","","","","",""
"","image-keyboard-response","73","251799","0.0-3.5-0.5","008","23","f","1658764813341","q","q","Only if I get the answer right","You win money","A fixed time limit","5","female","Look at the odd white spot","This game is almost inhumanely impossible...","2","0","3","1","1","1","0","2","1","1","2","1","1","2","1","1","1","0","1","1","2","2","1","0","1","1","0","1","1","1","1","2","1","1","1","2","1","1","1","1","1","2","1","1","0","2","2","2","3","2","3","2","3","3","2","3","3","3","2","2","3","3","3","3823.5","static/images/instructions/Slide13.png","39","","","","","","","","","","","","","","","","","","",""
"","image-keyboard-response","74","259255","0.0-3.6-0.6","008","23","f","1658764813341","q","q","Only if I get the answer right","You win money","A fixed time limit","5","female","Look at the odd white spot","This game is almost inhumanely impossible...","2","0","3","1","1","1","0","2","1","1","2","1","1","2","1","1","1","0","1","1","2","2","1","0","1","1","0","1","1","1","1","2","1","1","1","2","1","1","1","1","1","2","1","1","0","2","2","2","3","2","3","2","3","3","2","3","3","3","2","2","3","3","3","7455.5","static/images/instructions/Slide14.png","39","","","","","","","","","","","","","","","","","","",""
"","image-keyboard-response","75","264111","0.0-3.7-0.7","008","23","f","1658764813341","q","q","Only if I get the answer right","You win money","A fixed time limit","5","female","Look at the odd white spot","This game is almost inhumanely impossible...","2","0","3","1","1","1","0","2","1","1","2","1","1","2","1","1","1","0","1","1","2","2","1","0","1","1","0","1","1","1","1","2","1","1","1","2","1","1","1","1","1","2","1","1","0","2","2","2","3","2","3","2","3","3","2","3","3","3","2","2","3","3","3","4855.300000011921","static/images/instructions/Slide15.png","39","","","","","","","","","","","","","","","","","","",""
"","image-keyboard-response","76","271399","0.0-3.8-0.8","008","23","f","1658764813341","q","q","Only if I get the answer right","You win money","A fixed time limit","5","female","Look at the odd white spot","This game is almost inhumanely impossible...","2","0","3","1","1","1","0","2","1","1","2","1","1","2","1","1","1","0","1","1","2","2","1","0","1","1","0","1","1","1","1","2","1","1","1","2","1","1","1","1","1","2","1","1","0","2","2","2","3","2","3","2","3","3","2","3","3","3","2","2","3","3","3","7287.300000011921","static/images/instructions/Slide16.png","39","","","","","","","","","","","","","","","","","","",""
"","image-keyboard-response","77","276663","0.0-3.9-0.9","008","23","f","1658764813341","q","q","Only if I get the answer right","You win money","A fixed time limit","5","female","Look at the odd white spot","This game is almost inhumanely impossible...","2","0","3","1","1","1","0","2","1","1","2","1","1","2","1","1","1","0","1","1","2","2","1","0","1","1","0","1","1","1","1","2","1","1","1","2","1","1","1","1","1","2","1","1","0","2","2","2","3","2","3","2","3","3","2","3","3","3","2","2","3","3","3","5263.699999988079","static/images/instructions/Slide17.png","39","","","","","","","","","","","","","","","","","","",""
"","survey-multi-choice","78","306731","0.0-4.0","008","23","f","1658764813341","q","q","Only if I get the answer right","You win money","A fixed time limit","5","female","Look at the odd white spot","This game is almost inhumanely impossible...","2","0","3","1","1","1","0","2","1","1","2","1","1","2","1","1","1","0","1","1","2","2","1","0","1","1","0","1","1","1","1","2","1","1","1","2","1","1","1","1","1","2","1","1","0","2","2","2","3","2","3","2","3","3","2","3","3","3","2","2","3","3","3","30062.90000000596","","","","","","","","","","","","","","{""q1"":""q"",""q2"":""q"",""q3"":""Only if I get the answer right"",""q4"":""You win money"",""q5"":""A fixed time limit""}","[2,3,1,4,0]","","","","","",""
"","image-keyboard-response","79","311115","0.0-5.0-0.0","008","23","f","1658764813341","q","q","Only if I get the answer right","You win money","A fixed time limit","5","female","Look at the odd white spot","This game is almost inhumanely impossible...","2","0","3","1","1","1","0","2","1","1","2","1","1","2","1","1","1","0","1","1","2","2","1","0","1","1","0","1","1","1","1","2","1","1","1","2","1","1","1","1","1","2","1","1","0","2","2","2","3","2","3","2","3","3","2","3","3","3","2","2","3","3","3","4382","static/images/instructions/Slide18.png","39","","","","","","","","","","","","","","","","","","",""
"","html-keyboard-response","80","312118","0.0-6.0-0.0-0.0","008","23","f","1658764813341","q","q","Only if I get the answer right","You win money","A fixed time limit","5","female","Look at the odd white spot","This game is almost inhumanely impossible...","2","0","3","1","1","1","0","2","1","1","2","1","1","2","1","1","1","0","1","1","2","2","1","0","1","1","0","1","1","1","1","2","1","1","1","2","1","1","1","1","1","2","1","1","0","2","2","2","3","2","3","2","3","3","2","3","3","3","2","2","3","3","3","null","<div style=""font-size:75px;"">3</div>","null","","","","","","","","","","","","","","","","","","",""
"","html-keyboard-response","81","313126","0.0-6.0-0.1-0.1","008","23","f","1658764813341","q","q","Only if I get the answer right","You win money","A fixed time limit","5","female","Look at the odd white spot","This game is almost inhumanely impossible...","2","0","3","1","1","1","0","2","1","1","2","1","1","2","1","1","1","0","1","1","2","2","1","0","1","1","0","1","1","1","1","2","1","1","1","2","1","1","1","1","1","2","1","1","0","2","2","2","3","2","3","2","3","3","2","3","3","3","2","2","3","3","3","null","<div style=""font-size:75px;"">2</div>","null","","","","","","","","","","","","","","","","","","",""
"","html-keyboard-response","82","314132","0.0-6.0-0.2-0.2","008","23","f","1658764813341","q","q","Only if I get the answer right","You win money","A fixed time limit","5","female","Look at the odd white spot","This game is almost inhumanely impossible...","2","0","3","1","1","1","0","2","1","1","2","1","1","2","1","1","1","0","1","1","2","2","1","0","1","1","0","1","1","1","1","2","1","1","1","2","1","1","1","1","1","2","1","1","0","2","2","2","3","2","3","2","3","3","2","3","3","3","2","2","3","3","3","null","<div style=""font-size:75px;"">1</div>","null","","","","","","","","","","","","","","","","","","",""
"","html-keyboard-response","83","314747","0.0-6.0-1.0-0.0","008","23","f","1658764813341","q","q","Only if I get the answer right","You win money","A fixed time limit","5","female","Look at the odd white spot","This game is almost inhumanely impossible...","2","0","3","1","1","1","0","2","1","1","2","1","1","2","1","1","1","0","1","1","2","2","1","0","1","1","0","1","1","1","1","2","1","1","1","2","1","1","1","1","1","2","1","1","0","2","2","2","3","2","3","2","3","3","2","3","3","3","2","2","3","3","3","613.5","<div style=""color:green; font-size:75px;""><b>$0.25</b></div><br><br><br><br><table><tr><td><img src=static/images/oddball_down.png></td><td><img src=static/images/oddball_up.png></td><td><img src=static/images/oddball_down.png></td></tr></table>","87","1","","","","","","","","","","","","","","","","","",""
"","html-keyboard-response","84","314749","0.0-6.0-1.0-1.0","008","23","f","1658764813341","q","q","Only if I get the answer right","You win money","A fixed time limit","5","female","Look at the odd white spot","This game is almost inhumanely impossible...","2","0","3","1","1","1","0","2","1","1","2","1","1","2","1","1","1","0","1","1","2","2","1","0","1","1","0","1","1","1","1","2","1","1","1","2","1","1","1","1","1","2","1","1","0","2","2","2","3","2","3","2","3","3","2","3","3","3","2","2","3","3","3","613.5","","w","","true","0","0","down","up","1","w","1","0","1658765128379","","","false","60","0","0","0.25","null"
"","html-keyboard-response","85","315443","0.0-6.0-1.1-0.1","008","23","f","1658764813341","q","q","Only if I get the answer right","You win money","A fixed time limit","5","female","Look at the odd white spot","This game is almost inhumanely impossible...","2","0","3","1","1","1","0","2","1","1","2","1","1","2","1","1","1","0","1","1","2","2","1","0","1","1","0","1","1","1","1","2","1","1","1","2","1","1","1","1","1","2","1","1","0","2","2","2","3","2","3","2","3","3","2","3","3","3","2","2","3","3","3","693","<div style=""color:green; font-size:75px;""><b>$0.25</b></div><br><br><br><br><table><tr><td><img src=static/images/oddball_down.png></td><td><img src=static/images/oddball_up.png></td><td><img src=static/images/oddball_up.png></td></tr></table>","81","1","","","","","","","","","","","","","","","","","",""
"","html-keyboard-response","86","315445","0.0-6.0-1.1-1.1","008","23","f","1658764813341","q","q","Only if I get the answer right","You win money","A fixed time limit","5","female","Look at the odd white spot","This game is almost inhumanely impossible...","2","0","3","1","1","1","0","2","1","1","2","1","1","2","1","1","1","0","1","1","2","2","1","0","1","1","0","1","1","1","1","2","1","1","1","2","1","1","1","1","1","2","1","1","0","2","2","2","3","2","3","2","3","3","2","3","3","3","2","2","3","3","3","693","","q","","true","0","1","up","down","0","q","1","0","1658765129075","","","false","60","1","0.016666666666666666","0.25","false"
"","html-keyboard-response","87","316115","0.0-6.0-1.2-0.2","008","23","f","1658764813341","q","q","Only if I get the answer right","You win money","A fixed time limit","5","female","Look at the odd white spot","This game is almost inhumanely impossible...","2","0","3","1","1","1","0","2","1","1","2","1","1","2","1","1","1","0","1","1","2","2","1","0","1","1","0","1","1","1","1","2","1","1","1","2","1","1","1","1","1","2","1","1","0","2","2","2","3","2","3","2","3","3","2","3","3","3","2","2","3","3","3","669","<div style=""color:green; font-size:75px;""><b>$0.25</b></div><br><br><br><br><table><tr><td><img src=static/images/oddball_up.png></td><td><img src=static/images/oddball_down.png></td><td><img src=static/images/oddball_down.png></td></tr></table>","81","1","","","","","","","","","","","","","","","","","",""
"","html-keyboard-response","88","316117","0.0-6.0-1.2-1.2","008","23","f","1658764813341","q","q","Only if I get the answer right","You win money","A fixed time limit","5","female","Look at the odd white spot","This game is almost inhumanely impossible...","2","0","3","1","1","1","0","2","1","1","2","1","1","2","1","1","1","0","1","1","2","2","1","0","1","1","0","1","1","1","1","2","1","1","1","2","1","1","1","1","1","2","1","1","0","2","2","2","3","2","3","2","3","3","2","3","3","3","2","2","3","3","3","669","","q","","true","0","2","down","up","0","q","1","0","1658765129748","","","false","60","2","0.03333333333333333","0.25","false"
"","html-keyboard-response","89","316723","0.0-6.0-1.3-0.3","008","23","f","1658764813341","q","q","Only if I get the answer right","You win money","A fixed time limit","5","female","Look at the odd white spot","This game is almost inhumanely impossible...","2","0","3","1","1","1","0","2","1","1","2","1","1","2","1","1","1","0","1","1","2","2","1","0","1","1","0","1","1","1","1","2","1","1","1","2","1","1","1","1","1","2","1","1","0","2","2","2","3","2","3","2","3","3","2","3","3","3","2","2","3","3","3","604.4000000059605","<div style=""color:green; font-size:75px;""><b>$0.25</b></div><br><br><br><br><table><tr><td><img src=static/images/oddball_down.png></td><td><img src=static/images/oddball_up.png></td><td><img src=static/images/oddball_up.png></td></tr></table>","81","1","","","","","","","","","","","","","","","","","",""
"","html-keyboard-response","90","316725","0.0-6.0-1.3-1.3","008","23","f","1658764813341","q","q","Only if I get the answer right","You win money","A fixed time limit","5","female","Look at the odd white spot","This game is almost inhumanely impossible...","2","0","3","1","1","1","0","2","1","1","2","1","1","2","1","1","1","0","1","1","2","2","1","0","1","1","0","1","1","1","1","2","1","1","1","2","1","1","1","1","1","2","1","1","0","2","2","2","3","2","3","2","3","3","2","3","3","3","2","2","3","3","3","604.4000000059605","","q","","true","0","3","up","down","0","q","1","0","1658765130355","","","false","60","3","0.05","0.25","false"
"","html-keyboard-response","91","317355","0.0-6.0-1.4-0.4","008","23","f","1658764813341","q","q","Only if I get the answer right","You win money","A fixed time limit","5","female","Look at the odd white spot","This game is almost inhumanely impossible...","2","0","3","1","1","1","0","2","1","1","2","1","1","2","1","1","1","0","1","1","2","2","1","0","1","1","0","1","1","1","1","2","1","1","1","2","1","1","1","1","1","2","1","1","0","2","2","2","3","2","3","2","3","3","2","3","3","3","2","2","3","3","3","629","<div style=""color:green; font-size:75px;""><b>$0.25</b></div><br><br><br><br><table><tr><td><img src=static/images/oddball_up.png></td><td><img src=static/images/oddball_down.png></td><td><img src=static/images/oddball_up.png></td></tr></table>","87","1","","","","","","","","","","","","","","","","","",""
"","html-keyboard-response","92","317357","0.0-6.0-1.4-1.4","008","23","f","1658764813341","q","q","Only if I get the answer right","You win money","A fixed time limit","5","female","Look at the odd white spot","This game is almost inhumanely impossible...","2","0","3","1","1","1","0","2","1","1","2","1","1","2","1","1","1","0","1","1","2","2","1","0","1","1","0","1","1","1","1","2","1","1","1","2","1","1","1","1","1","2","1","1","0","2","2","2","3","2","3","2","3","3","2","3","3","3","2","2","3","3","3","629","","w","","true","0","4","up","down","1","w","1","0","1658765130987","","","false","60","4","0.06666666666666667","0.25","false"
"","html-keyboard-response","93","317971","0.0-6.0-1.5-0.5","008","23","f","1658764813341","q","q","Only if I get the answer right","You win money","A fixed time limit","5","female","Look at the odd white spot","This game is almost inhumanely impossible...","2","0","3","1","1","1","0","2","1","1","2","1","1","2","1","1","1","0","1","1","2","2","1","0","1","1","0","1","1","1","1","2","1","1","1","2","1","1","1","1","1","2","1","1","0","2","2","2","3","2","3","2","3","3","2","3","3","3","2","2","3","3","3","613","<div style=""color:green; font-size:75px;""><b>$0.25</b></div><br><br><br><br><table><tr><td><img src=static/images/oddball_up.png></td><td><img src=static/images/oddball_down.png></td><td><img src=static/images/oddball_up.png></td></tr></table>","87","1","","","","","","","","","","","","","","","","","",""
"","html-keyboard-response","94","317973","0.0-6.0-1.5-1.5","008","23","f","1658764813341","q","q","Only if I get the answer right","You win money","A fixed time limit","5","female","Look at the odd white spot","This game is almost inhumanely impossible...","2","0","3","1","1","1","0","2","1","1","2","1","1","2","1","1","1","0","1","1","2","2","1","0","1","1","0","1","1","1","1","2","1","1","1","2","1","1","1","1","1","2","1","1","0","2","2","2","3","2","3","2","3","3","2","3","3","3","2","2","3","3","3","613","","w","","true","0","5","up","down","1","w","1","0","1658765131603","","","false","60","5","0.08333333333333333","0.25","false"
"","html-keyboard-response","95","318667","0.0-6.0-1.6-0.6","008","23","f","1658764813341","q","q","Only if I get the answer right","You win money","A fixed time limit","5","female","Look at the odd white spot","This game is almost inhumanely impossible...","2","0","3","1","1","1","0","2","1","1","2","1","1","2","1","1","1","0","1","1","2","2","1","0","1","1","0","1","1","1","1","2","1","1","1","2","1","1","1","1","1","2","1","1","0","2","2","2","3","2","3","2","3","3","2","3","3","3","2","2","3","3","3","692.7000000178814","<div style=""color:green; font-size:75px;""><b>$0.25</b></div><br><br><br><br><table><tr><td><img src=static/images/oddball_up.png></td><td><img src=static/images/oddball_down.png></td><td><img src=static/images/oddball_down.png></td></tr></table>","81","1","","","","","","","","","","","","","","","","","",""
"","html-keyboard-response","96","318669","0.0-6.0-1.6-1.6","008","23","f","1658764813341","q","q","Only if I get the answer right","You win money","A fixed time limit","5","female","Look at the odd white spot","This game is almost inhumanely impossible...","2","0","3","1","1","1","0","2","1","1","2","1","1","2","1","1","1","0","1","1","2","2","1","0","1","1","0","1","1","1","1","2","1","1","1","2","1","1","1","1","1","2","1","1","0","2","2","2","3","2","3","2","3","3","2","3","3","3","2","2","3","3","3","692.7000000178814","","q","","true","0","6","down","up","0","q","1","0","1658765132299","","","false","60","6","0.1","0.25","false"
"","html-keyboard-response","97","319251","0.0-6.0-1.7-0.7","008","23","f","1658764813341","q","q","Only if I get the answer right","You win money","A fixed time limit","5","female","Look at the odd white spot","This game is almost inhumanely impossible...","2","0","3","1","1","1","0","2","1","1","2","1","1","2","1","1","1","0","1","1","2","2","1","0","1","1","0","1","1","1","1","2","1","1","1","2","1","1","1","1","1","2","1","1","0","2","2","2","3","2","3","2","3","3","2","3","3","3","2","2","3","3","3","581.0999999940395","<div style=""color:green; font-size:75px;""><b>$0.25</b></div><br><br><br><br><table><tr><td><img src=static/images/oddball_down.png></td><td><img src=static/images/oddball_up.png></td><td><img src=static/images/oddball_up.png></td></tr></table>","81","1","","","","","","","","","","","","","","","","","",""
"","html-keyboard-response","98","319253","0.0-6.0-1.7-1.7","008","23","f","1658764813341","q","q","Only if I get the answer right","You win money","A fixed time limit","5","female","Look at the odd white spot","This game is almost inhumanely impossible...","2","0","3","1","1","1","0","2","1","1","2","1","1","2","1","1","1","0","1","1","2","2","1","0","1","1","0","1","1","1","1","2","1","1","1","2","1","1","1","1","1","2","1","1","0","2","2","2","3","2","3","2","3","3","2","3","3","3","2","2","3","3","3","581.0999999940395","","q","","true","0","7","up","down","0","q","1","0","1658765132883","","","false","60","7","0.11666666666666667","0.25","false"
"","html-keyboard-response","99","319827","0.0-6.0-1.8-0.8","008","23","f","1658764813341","q","q","Only if I get the answer right","You win money","A fixed time limit","5","female","Look at the odd white spot","This game is almost inhumanely impossible...","2","0","3","1","1","1","0","2","1","1","2","1","1","2","1","1","1","0","1","1","2","2","1","0","1","1","0","1","1","1","1","2","1","1","1","2","1","1","1","1","1","2","1","1","0","2","2","2","3","2","3","2","3","3","2","3","3","3","2","2","3","3","3","573.1999999880791","<div style=""color:green; font-size:75px;""><b>$0.25</b></div><br><br><br><br><table><tr><td><img src=static/images/oddball_up.png></td><td><img src=static/images/oddball_down.png></td><td><img src=static/images/oddball_up.png></td></tr></table>","87","1","","","","","","","","","","","","","","","","","",""
"","html-keyboard-response","100","319829","0.0-6.0-1.8-1.8","008","23","f","1658764813341","q","q","Only if I get the answer right","You win money","A fixed time limit","5","female","Look at the odd white spot","This game is almost inhumanely impossible...","2","0","3","1","1","1","0","2","1","1","2","1","1","2","1","1","1","0","1","1","2","2","1","0","1","1","0","1","1","1","1","2","1","1","1","2","1","1","1","1","1","2","1","1","0","2","2","2","3","2","3","2","3","3","2","3","3","3","2","2","3","3","3","573.1999999880791","","w","","true","0","8","up","down","1","w","1","0","1658765133459","","","false","60","8","0.13333333333333333","0.25","false"
"","html-keyboard-response","101","320394","0.0-6.0-1.9-0.9","008","23","f","1658764813341","q","q","Only if I get the answer right","You win money","A fixed time limit","5","female","Look at the odd white spot","This game is almost inhumanely impossible...","2","0","3","1","1","1","0","2","1","1","2","1","1","2","1","1","1","0","1","1","2","2","1","0","1","1","0","1","1","1","1","2","1","1","1","2","1","1","1","1","1","2","1","1","0","2","2","2","3","2","3","2","3","3","2","3","3","3","2","2","3","3","3","564.6999999880791","<div style=""color:green; font-size:75px;""><b>$0.25</b></div><br><br><br><br><table><tr><td><img src=static/images/oddball_down.png></td><td><img src=static/images/oddball_up.png></td><td><img src=static/images/oddball_down.png></td></tr></table>","69","1","","","","","","","","","","","","","","","","","",""
"","html-keyboard-response","102","320396","0.0-6.0-1.9-1.9","008","23","f","1658764813341","q","q","Only if I get the answer right","You win money","A fixed time limit","5","female","Look at the odd white spot","This game is almost inhumanely impossible...","2","0","3","1","1","1","0","2","1","1","2","1","1","2","1","1","1","0","1","1","2","2","1","0","1","1","0","1","1","1","1","2","1","1","1","2","1","1","1","1","1","2","1","1","0","2","2","2","3","2","3","2","3","3","2","3","3","3","2","2","3","3","3","564.6999999880791","","e","","true","0","9","down","up","1","w","0","0","1658765134026","","","false","60","9","0.15","0.25","false"
"","html-keyboard-response","103","321123","0.0-6.0-1.10-0.10","008","23","f","1658764813341","q","q","Only if I get the answer right","You win money","A fixed time limit","5","female","Look at the odd white spot","This game is almost inhumanely impossible...","2","0","3","1","1","1","0","2","1","1","2","1","1","2","1","1","1","0","1","1","2","2","1","0","1","1","0","1","1","1","1","2","1","1","1","2","1","1","1","1","1","2","1","1","0","2","2","2","3","2","3","2","3","3","2","3","3","3","2","2","3","3","3","725.5999999940395","<div style=""color:green; font-size:75px;""><b>$0.25</b></div><br><br><br><br><table><tr><td><img src=static/images/oddball_up.png></td><td><img src=static/images/oddball_down.png></td><td><img src=static/images/oddball_up.png></td></tr></table>","87","1","","","","","","","","","","","","","","","","","",""
"","html-keyboard-response","104","321125","0.0-6.0-1.10-1.10","008","23","f","1658764813341","q","q","Only if I get the answer right","You win money","A fixed time limit","5","female","Look at the odd white spot","This game is almost inhumanely impossible...","2","0","3","1","1","1","0","2","1","1","2","1","1","2","1","1","1","0","1","1","2","2","1","0","1","1","0","1","1","1","1","2","1","1","1","2","1","1","1","1","1","2","1","1","0","2","2","2","3","2","3","2","3","3","2","3","3","3","2","2","3","3","3","725.5999999940395","","w","","true","0","10","up","down","1","w","1","0","1658765134755","","","false","60","10","0.15","0.25","false"
"","html-keyboard-response","105","321875","0.0-6.0-1.11-0.11","008","23","f","1658764813341","q","q","Only if I get the answer right","You win money","A fixed time limit","5","female","Look at the odd white spot","This game is almost inhumanely impossible...","2","0","3","1","1","1","0","2","1","1","2","1","1","2","1","1","1","0","1","1","2","2","1","0","1","1","0","1","1","1","1","2","1","1","1","2","1","1","1","1","1","2","1","1","0","2","2","2","3","2","3","2","3","3","2","3","3","3","2","2","3","3","3","749.0999999940395","<div style=""color:green; font-size:75px;""><b>$0.25</b></div><br><br><br><br><table><tr><td><img src=static/images/oddball_down.png></td><td><img src=static/images/oddball_down.png></td><td><img src=static/images/oddball_up.png></td></tr></table>","69","1","","","","","","","","","","","","","","","","","",""
"","html-keyboard-response","106","321877","0.0-6.0-1.11-1.11","008","23","f","1658764813341","q","q","Only if I get the answer right","You win money","A fixed time limit","5","female","Look at the odd white spot","This game is almost inhumanely impossible...","2","0","3","1","1","1","0","2","1","1","2","1","1","2","1","1","1","0","1","1","2","2","1","0","1","1","0","1","1","1","1","2","1","1","1","2","1","1","1","1","1","2","1","1","0","2","2","2","3","2","3","2","3","3","2","3","3","3","2","2","3","3","3","749.0999999940395","","e","","true","0","11","down","up","2","e","1","0","1658765135507","","","false","60","11","0.16666666666666666","0.25","false"
"","html-keyboard-response","107","322507","0.0-6.0-1.12-0.12","008","23","f","1658764813341","q","q","Only if I get the answer right","You win money","A fixed time limit","5","female","Look at the odd white spot","This game is almost inhumanely impossible...","2","0","3","1","1","1","0","2","1","1","2","1","1","2","1","1","1","0","1","1","2","2","1","0","1","1","0","1","1","1","1","2","1","1","1","2","1","1","1","1","1","2","1","1","0","2","2","2","3","2","3","2","3","3","2","3","3","3","2","2","3","3","3","629.0999999940395","<div style=""color:green; font-size:75px;""><b>$0.25</b></div><br><br><br><br><table><tr><td><img src=static/images/oddball_down.png></td><td><img src=static/images/oddball_up.png></td><td><img src=static/images/oddball_down.png></td></tr></table>","87","1","","","","","","","","","","","","","","","","","",""
"","html-keyboard-response","108","322509","0.0-6.0-1.12-1.12","008","23","f","1658764813341","q","q","Only if I get the answer right","You win money","A fixed time limit","5","female","Look at the odd white spot","This game is almost inhumanely impossible...","2","0","3","1","1","1","0","2","1","1","2","1","1","2","1","1","1","0","1","1","2","2","1","0","1","1","0","1","1","1","1","2","1","1","1","2","1","1","1","1","1","2","1","1","0","2","2","2","3","2","3","2","3","3","2","3","3","3","2","2","3","3","3","629.0999999940395","","w","","true","0","12","down","up","1","w","1","0","1658765136139","","","false","60","12","0.18333333333333332","0.25","false"
"","html-keyboard-response","109","323147","0.0-6.0-1.13-0.13","008","23","f","1658764813341","q","q","Only if I get the answer right","You win money","A fixed time limit","5","female","Look at the odd white spot","This game is almost inhumanely impossible...","2","0","3","1","1","1","0","2","1","1","2","1","1","2","1","1","1","0","1","1","2","2","1","0","1","1","0","1","1","1","1","2","1","1","1","2","1","1","1","1","1","2","1","1","0","2","2","2","3","2","3","2","3","3","2","3","3","3","2","2","3","3","3","637.0999999940395","<div style=""color:green; font-size:75px;""><b>$0.25</b></div><br><br><br><br><table><tr><td><img src=static/images/oddball_up.png></td><td><img src=static/images/oddball_up.png></td><td><img src=static/images/oddball_down.png></td></tr></table>","69","1","","","","","","","","","","","","","","","","","",""
"","html-keyboard-response","110","323150","0.0-6.0-1.13-1.13","008","23","f","1658764813341","q","q","Only if I get the answer right","You win money","A fixed time limit","5","female","Look at the odd white spot","This game is almost inhumanely impossible...","2","0","3","1","1","1","0","2","1","1","2","1","1","2","1","1","1","0","1","1","2","2","1","0","1","1","0","1","1","1","1","2","1","1","1","2","1","1","1","1","1","2","1","1","0","2","2","2","3","2","3","2","3","3","2","3","3","3","2","2","3","3","3","637.0999999940395","","e","","true","0","13","up","down","2","e","1","0","1658765136780","","","false","60","13","0.2","0.25","false"
"","html-keyboard-response","111","323755","0.0-6.0-1.14-0.14","008","23","f","1658764813341","q","q","Only if I get the answer right","You win money","A fixed time limit","5","female","Look at the odd white spot","This game is almost inhumanely impossible...","2","0","3","1","1","1","0","2","1","1","2","1","1","2","1","1","1","0","1","1","2","2","1","0","1","1","0","1","1","1","1","2","1","1","1","2","1","1","1","1","1","2","1","1","0","2","2","2","3","2","3","2","3","3","2","3","3","3","2","2","3","3","3","604","<div style=""color:green; font-size:75px;""><b>$0.25</b></div><br><br><br><br><table><tr><td><img src=static/images/oddball_up.png></td><td><img src=static/images/oddball_up.png></td><td><img src=static/images/oddball_down.png></td></tr></table>","69","1","","","","","","","","","","","","","","","","","",""
"","html-keyboard-response","112","323757","0.0-6.0-1.14-1.14","008","23","f","1658764813341","q","q","Only if I get the answer right","You win money","A fixed time limit","5","female","Look at the odd white spot","This game is almost inhumanely impossible...","2","0","3","1","1","1","0","2","1","1","2","1","1","2","1","1","1","0","1","1","2","2","1","0","1","1","0","1","1","1","1","2","1","1","1","2","1","1","1","1","1","2","1","1","0","2","2","2","3","2","3","2","3","3","2","3","3","3","2","2","3","3","3","604","","e","","true","0","14","up","down","2","e","1","0","1658765137387","","","false","60","14","0.21666666666666667","0.25","false"
"","html-keyboard-response","113","324491","0.0-6.0-1.15-0.15","008","23","f","1658764813341","q","q","Only if I get the answer right","You win money","A fixed time limit","5","female","Look at the odd white spot","This game is almost inhumanely impossible...","2","0","3","1","1","1","0","2","1","1","2","1","1","2","1","1","1","0","1","1","2","2","1","0","1","1","0","1","1","1","1","2","1","1","1","2","1","1","1","1","1","2","1","1","0","2","2","2","3","2","3","2","3","3","2","3","3","3","2","2","3","3","3","733.2000000178814","<div style=""color:green; font-size:75px;""><b>$0.25</b></div><br><br><br><br><table><tr><td><img src=static/images/oddball_up.png></td><td><img src=static/images/oddball_down.png></td><td><img src=static/images/oddball_down.png></td></tr></table>","81","1","","","","","","","","","","","","","","","","","",""
"","html-keyboard-response","114","324493","0.0-6.0-1.15-1.15","008","23","f","1658764813341","q","q","Only if I get the answer right","You win money","A fixed time limit","5","female","Look at the odd white spot","This game is almost inhumanely impossible...","2","0","3","1","1","1","0","2","1","1","2","1","1","2","1","1","1","0","1","1","2","2","1","0","1","1","0","1","1","1","1","2","1","1","1","2","1","1","1","1","1","2","1","1","0","2","2","2","3","2","3","2","3","3","2","3","3","3","2","2","3","3","3","733.2000000178814","","q","","true","0","15","down","up","0","q","1","0","1658765138123","","","false","60","15","0.23333333333333334","0.25","false"
"","html-keyboard-response","115","325255","0.0-6.0-1.16-0.16","008","23","f","1658764813341","q","q","Only if I get the answer right","You win money","A fixed time limit","5","female","Look at the odd white spot","This game is almost inhumanely impossible...","2","0","3","1","1","1","0","2","1","1","2","1","1","2","1","1","1","0","1","1","2","2","1","0","1","1","0","1","1","1","1","2","1","1","1","2","1","1","1","1","1","2","1","1","0","2","2","2","3","2","3","2","3","3","2","3","3","3","2","2","3","3","3","null","<div style=""color:green; font-size:75px;""><b>$0.25</b></div><br><br><br><br><table><tr><td><img src=static/images/oddball_down.png></td><td><img src=static/images/oddball_up.png></td><td><img src=static/images/oddball_down.png></td></tr></table>","null","","","","","","","","","","","","","","","","","","",""
"","html-keyboard-response","116","325258","0.0-6.0-1.16-1.16","008","23","f","1658764813341","q","q","Only if I get the answer right","You win money","A fixed time limit","5","female","Look at the odd white spot","This game is almost inhumanely impossible...","2","0","3","1","1","1","0","2","1","1","2","1","1","2","1","1","1","0","1","1","2","2","1","0","1","1","0","1","1","1","1","2","1","1","1","2","1","1","1","1","1","2","1","1","0","2","2","2","3","2","3","2","3","3","2","3","3","3","2","2","3","3","3","null","","null","","true","0","16","down","up","1","w","0","0","1658765138888","","","false","60","16","0.25","0.25","true"
"","html-keyboard-response","117","325499","0.0-6.0-1.17-0.17","008","23","f","1658764813341","q","q","Only if I get the answer right","You win money","A fixed time limit","5","female","Look at the odd white spot","This game is almost inhumanely impossible...","2","0","3","1","1","1","0","2","1","1","2","1","1","2","1","1","1","0","1","1","2","2","1","0","1","1","0","1","1","1","1","2","1","1","1","2","1","1","1","1","1","2","1","1","0","2","2","2","3","2","3","2","3","3","2","3","3","3","2","2","3","3","3","240.2000000178814","<div style=""color:green; font-size:75px;""><b>$0.25</b></div><br><br><br><br><table><tr><td><img src=static/images/oddball_down.png></td><td><img src=static/images/oddball_down.png></td><td><img src=static/images/oddball_up.png></td></tr></table>","87","1","","","","","","","","","","","","","","","","","",""
"","html-keyboard-response","118","325501","0.0-6.0-1.17-1.17","008","23","f","1658764813341","q","q","Only if I get the answer right","You win money","A fixed time limit","5","female","Look at the odd white spot","This game is almost inhumanely impossible...","2","0","3","1","1","1","0","2","1","1","2","1","1","2","1","1","1","0","1","1","2","2","1","0","1","1","0","1","1","1","1","2","1","1","1","2","1","1","1","1","1","2","1","1","0","2","2","2","3","2","3","2","3","3","2","3","3","3","2","2","3","3","3","240.2000000178814","","w","","true","0","17","down","up","2","e","0","0","1658765139131","","","false","60","17","0.25","0.25","false"
"","html-keyboard-response","119","326258","0.0-6.0-1.18-0.18","008","23","f","1658764813341","q","q","Only if I get the answer right","You win money","A fixed time limit","5","female","Look at the odd white spot","This game is almost inhumanely impossible...","2","0","3","1","1","1","0","2","1","1","2","1","1","2","1","1","1","0","1","1","2","2","1","0","1","1","0","1","1","1","1","2","1","1","1","2","1","1","1","1","1","2","1","1","0","2","2","2","3","2","3","2","3","3","2","3","3","3","2","2","3","3","3","null","<div style=""color:green; font-size:75px;""><b>$0.25</b></div><br><br><br><br><table><tr><td><img src=static/images/oddball_up.png></td><td><img src=static/images/oddball_down.png></td><td><img src=static/images/oddball_down.png></td></tr></table>","null","","","","","","","","","","","","","","","","","","",""
"","html-keyboard-response","120","326260","0.0-6.0-1.18-1.18","008","23","f","1658764813341","q","q","Only if I get the answer right","You win money","A fixed time limit","5","female","Look at the odd white spot","This game is almost inhumanely impossible...","2","0","3","1","1","1","0","2","1","1","2","1","1","2","1","1","1","0","1","1","2","2","1","0","1","1","0","1","1","1","1","2","1","1","1","2","1","1","1","1","1","2","1","1","0","2","2","2","3","2","3","2","3","3","2","3","3","3","2","2","3","3","3","null","","null","","true","0","18","down","up","0","q","0","0","1658765139890","","","false","60","18","0.25","0.25","true"
"","html-keyboard-response","121","326435","0.0-6.0-1.19-0.19","008","23","f","1658764813341","q","q","Only if I get the answer right","You win money","A fixed time limit","5","female","Look at the odd white spot","This game is almost inhumanely impossible...","2","0","3","1","1","1","0","2","1","1","2","1","1","2","1","1","1","0","1","1","2","2","1","0","1","1","0","1","1","1","1","2","1","1","1","2","1","1","1","1","1","2","1","1","0","2","2","2","3","2","3","2","3","3","2","3","3","3","2","2","3","3","3","173.80000001192093","<div style=""color:green; font-size:75px;""><b>$0.25</b></div><br><br><br><br><table><tr><td><img src=static/images/oddball_up.png></td><td><img src=static/images/oddball_down.png></td><td><img src=static/images/oddball_down.png></td></tr></table>","81","1","","","","","","","","","","","","","","","","","",""
"","html-keyboard-response","122","326437","0.0-6.0-1.19-1.19","008","23","f","1658764813341","q","q","Only if I get the answer right","You win money","A fixed time limit","5","female","Look at the odd white spot","This game is almost inhumanely impossible...","2","0","3","1","1","1","0","2","1","1","2","1","1","2","1","1","1","0","1","1","2","2","1","0","1","1","0","1","1","1","1","2","1","1","1","2","1","1","1","1","1","2","1","1","0","2","2","2","3","2","3","2","3","3","2","3","3","3","2","2","3","3","3","173.80000001192093","","q","","true","0","19","down","up","0","q","1","0","1658765140067","","","false","60","19","0.25","0.25","false"
"","html-keyboard-response","123","326971","0.0-6.0-1.20-0.20","008","23","f","1658764813341","q","q","Only if I get the answer right","You win money","A fixed time limit","5","female","Look at the odd white spot","This game is almost inhumanely impossible...","2","0","3","1","1","1","0","2","1","1","2","1","1","2","1","1","1","0","1","1","2","2","1","0","1","1","0","1","1","1","1","2","1","1","1","2","1","1","1","1","1","2","1","1","0","2","2","2","3","2","3","2","3","3","2","3","3","3","2","2","3","3","3","533.2000000178814","<div style=""color:green; font-size:75px;""><b>$0.25</b></div><br><br><br><br><table><tr><td><img src=static/images/oddball_down.png></td><td><img src=static/images/oddball_down.png></td><td><img src=static/images/oddball_up.png></td></tr></table>","69","1","","","","","","","","","","","","","","","","","",""
"","html-keyboard-response","124","326972","0.0-6.0-1.20-1.20","008","23","f","1658764813341","q","q","Only if I get the answer right","You win money","A fixed time limit","5","female","Look at the odd white spot","This game is almost inhumanely impossible...","2","0","3","1","1","1","0","2","1","1","2","1","1","2","1","1","1","0","1","1","2","2","1","0","1","1","0","1","1","1","1","2","1","1","1","2","1","1","1","1","1","2","1","1","0","2","2","2","3","2","3","2","3","3","2","3","3","3","2","2","3","3","3","533.2000000178814","","e","","true","0","20","down","up","2","e","1","0","1658765140603","","","false","60","20","0.26666666666666666","0.25","false"
"","html-keyboard-response","125","327675","0.0-6.0-1.21-0.21","008","23","f","1658764813341","q","q","Only if I get the answer right","You win money","A fixed time limit","5","female","Look at the odd white spot","This game is almost inhumanely impossible...","2","0","3","1","1","1","0","2","1","1","2","1","1","2","1","1","1","0","1","1","2","2","1","0","1","1","0","1","1","1","1","2","1","1","1","2","1","1","1","1","1","2","1","1","0","2","2","2","3","2","3","2","3","3","2","3","3","3","2","2","3","3","3","701.0999999940395","<div style=""color:green; font-size:75px;""><b>$0.25</b></div><br><br><br><br><table><tr><td><img src=static/images/oddball_down.png></td><td><img src=static/images/oddball_up.png></td><td><img src=static/images/oddball_down.png></td></tr></table>","87","1","","","","","","","","","","","","","","","","","",""
"","html-keyboard-response","126","327677","0.0-6.0-1.21-1.21","008","23","f","1658764813341","q","q","Only if I get the answer right","You win money","A fixed time limit","5","female","Look at the odd white spot","This game is almost inhumanely impossible...","2","0","3","1","1","1","0","2","1","1","2","1","1","2","1","1","1","0","1","1","2","2","1","0","1","1","0","1","1","1","1","2","1","1","1","2","1","1","1","1","1","2","1","1","0","2","2","2","3","2","3","2","3","3","2","3","3","3","2","2","3","3","3","701.0999999940395","","w","","true","0","21","down","up","1","w","1","0","1658765141307","","","false","60","21","0.2833333333333333","0.25","false"
"","html-keyboard-response","127","328299","0.0-6.0-1.22-0.22","008","23","f","1658764813341","q","q","Only if I get the answer right","You win money","A fixed time limit","5","female","Look at the odd white spot","This game is almost inhumanely impossible...","2","0","3","1","1","1","0","2","1","1","2","1","1","2","1","1","1","0","1","1","2","2","1","0","1","1","0","1","1","1","1","2","1","1","1","2","1","1","1","1","1","2","1","1","0","2","2","2","3","2","3","2","3","3","2","3","3","3","2","2","3","3","3","621.0999999940395","<div style=""color:green; font-size:75px;""><b>$0.25</b></div><br><br><br><br><table><tr><td><img src=static/images/oddball_down.png></td><td><img src=static/images/oddball_up.png></td><td><img src=static/images/oddball_up.png></td></tr></table>","81","1","","","","","","","","","","","","","","","","","",""
"","html-keyboard-response","128","328301","0.0-6.0-1.22-1.22","008","23","f","1658764813341","q","q","Only if I get the answer right","You win money","A fixed time limit","5","female","Look at the odd white spot","This game is almost inhumanely impossible...","2","0","3","1","1","1","0","2","1","1","2","1","1","2","1","1","1","0","1","1","2","2","1","0","1","1","0","1","1","1","1","2","1","1","1","2","1","1","1","1","1","2","1","1","0","2","2","2","3","2","3","2","3","3","2","3","3","3","2","2","3","3","3","621.0999999940395","","q","","true","0","22","up","down","0","q","1","0","1658765141931","","","false","60","22","0.3","0.25","false"
"","html-keyboard-response","129","328891","0.0-6.0-1.23-0.23","008","23","f","1658764813341","q","q","Only if I get the answer right","You win money","A fixed time limit","5","female","Look at the odd white spot","This game is almost inhumanely impossible...","2","0","3","1","1","1","0","2","1","1","2","1","1","2","1","1","1","0","1","1","2","2","1","0","1","1","0","1","1","1","1","2","1","1","1","2","1","1","1","1","1","2","1","1","0","2","2","2","3","2","3","2","3","3","2","3","3","3","2","2","3","3","3","589.1999999880791","<div style=""color:green; font-size:75px;""><b>$0.25</b></div><br><br><br><br><table><tr><td><img src=static/images/oddball_down.png></td><td><img src=static/images/oddball_up.png></td><td><img src=static/images/oddball_up.png></td></tr></table>","81","1","","","","","","","","","","","","","","","","","",""
"","html-keyboard-response","130","328893","0.0-6.0-1.23-1.23","008","23","f","1658764813341","q","q","Only if I get the answer right","You win money","A fixed time limit","5","female","Look at the odd white spot","This game is almost inhumanely impossible...","2","0","3","1","1","1","0","2","1","1","2","1","1","2","1","1","1","0","1","1","2","2","1","0","1","1","0","1","1","1","1","2","1","1","1","2","1","1","1","1","1","2","1","1","0","2","2","2","3","2","3","2","3","3","2","3","3","3","2","2","3","3","3","589.1999999880791","","q","","true","0","23","up","down","0","q","1","0","1658765142523","","","false","60","23","0.31666666666666665","0.25","false"
"","html-keyboard-response","131","329499","0.0-6.0-1.24-0.24","008","23","f","1658764813341","q","q","Only if I get the answer right","You win money","A fixed time limit","5","female","Look at the odd white spot","This game is almost inhumanely impossible...","2","0","3","1","1","1","0","2","1","1","2","1","1","2","1","1","1","0","1","1","2","2","1","0","1","1","0","1","1","1","1","2","1","1","1","2","1","1","1","1","1","2","1","1","0","2","2","2","3","2","3","2","3","3","2","3","3","3","2","2","3","3","3","604.9000000059605","<div style=""color:green; font-size:75px;""><b>$0.25</b></div><br><br><br><br><table><tr><td><img src=static/images/oddball_up.png></td><td><img src=static/images/oddball_down.png></td><td><img src=static/images/oddball_down.png></td></tr></table>","81","1","","","","","","","","","","","","","","","","","",""
"","html-keyboard-response","132","329501","0.0-6.0-1.24-1.24","008","23","f","1658764813341","q","q","Only if I get the answer right","You win money","A fixed time limit","5","female","Look at the odd white spot","This game is almost inhumanely impossible...","2","0","3","1","1","1","0","2","1","1","2","1","1","2","1","1","1","0","1","1","2","2","1","0","1","1","0","1","1","1","1","2","1","1","1","2","1","1","1","1","1","2","1","1","0","2","2","2","3","2","3","2","3","3","2","3","3","3","2","2","3","3","3","604.9000000059605","","q","","true","0","24","down","up","0","q","1","0","1658765143131","","","false","60","24","0.3333333333333333","0.25","false"
"","html-keyboard-response","133","330211","0.0-6.0-1.25-0.25","008","23","f","1658764813341","q","q","Only if I get the answer right","You win money","A fixed time limit","5","female","Look at the odd white spot","This game is almost inhumanely impossible...","2","0","3","1","1","1","0","2","1","1","2","1","1","2","1","1","1","0","1","1","2","2","1","0","1","1","0","1","1","1","1","2","1","1","1","2","1","1","1","1","1","2","1","1","0","2","2","2","3","2","3","2","3","3","2","3","3","3","2","2","3","3","3","709","<div style=""color:green; font-size:75px;""><b>$0.25</b></div><br><br><br><br><table><tr><td><img src=static/images/oddball_up.png></td><td><img src=static/images/oddball_down.png></td><td><img src=static/images/oddball_up.png></td></tr></table>","87","1","","","","","","","","","","","","","","","","","",""
"","html-keyboard-response","134","330213","0.0-6.0-1.25-1.25","008","23","f","1658764813341","q","q","Only if I get the answer right","You win money","A fixed time limit","5","female","Look at the odd white spot","This game is almost inhumanely impossible...","2","0","3","1","1","1","0","2","1","1","2","1","1","2","1","1","1","0","1","1","2","2","1","0","1","1","0","1","1","1","1","2","1","1","1","2","1","1","1","1","1","2","1","1","0","2","2","2","3","2","3","2","3","3","2","3","3","3","2","2","3","3","3","709","","w","","true","0","25","up","down","1","w","1","0","1658765143843","","","false","60","25","0.35","0.25","false"
"","html-keyboard-response","135","330875","0.0-6.0-1.26-0.26","008","23","f","1658764813341","q","q","Only if I get the answer right","You win money","A fixed time limit","5","female","Look at the odd white spot","This game is almost inhumanely impossible...","2","0","3","1","1","1","0","2","1","1","2","1","1","2","1","1","1","0","1","1","2","2","1","0","1","1","0","1","1","1","1","2","1","1","1","2","1","1","1","1","1","2","1","1","0","2","2","2","3","2","3","2","3","3","2","3","3","3","2","2","3","3","3","661.0999999940395","<div style=""color:green; font-size:75px;""><b>$0.25</b></div><br><br><br><br><table><tr><td><img src=static/images/oddball_down.png></td><td><img src=static/images/oddball_up.png></td><td><img src=static/images/oddball_down.png></td></tr></table>","87","1","","","","","","","","","","","","","","","","","",""
"","html-keyboard-response","136","330877","0.0-6.0-1.26-1.26","008","23","f","1658764813341","q","q","Only if I get the answer right","You win money","A fixed time limit","5","female","Look at the odd white spot","This game is almost inhumanely impossible...","2","0","3","1","1","1","0","2","1","1","2","1","1","2","1","1","1","0","1","1","2","2","1","0","1","1","0","1","1","1","1","2","1","1","1","2","1","1","1","1","1","2","1","1","0","2","2","2","3","2","3","2","3","3","2","3","3","3","2","2","3","3","3","661.0999999940395","","w","","true","0","26","down","up","1","w","1","0","1658765144507","","","false","60","26","0.36666666666666664","0.25","false"
"","html-keyboard-response","137","331491","0.0-6.0-1.27-0.27","008","23","f","1658764813341","q","q","Only if I get the answer right","You win money","A fixed time limit","5","female","Look at the odd white spot","This game is almost inhumanely impossible...","2","0","3","1","1","1","0","2","1","1","2","1","1","2","1","1","1","0","1","1","2","2","1","0","1","1","0","1","1","1","1","2","1","1","1","2","1","1","1","1","1","2","1","1","0","2","2","2","3","2","3","2","3","3","2","3","3","3","2","2","3","3","3","613.0999999940395","<div style=""color:green; font-size:75px;""><b>$0.25</b></div><br><br><br><br><table><tr><td><img src=static/images/oddball_up.png></td><td><img src=static/images/oddball_down.png></td><td><img src=static/images/oddball_up.png></td></tr></table>","87","1","","","","","","","","","","","","","","","","","",""
"","html-keyboard-response","138","331493","0.0-6.0-1.27-1.27","008","23","f","1658764813341","q","q","Only if I get the answer right","You win money","A fixed time limit","5","female","Look at the odd white spot","This game is almost inhumanely impossible...","2","0","3","1","1","1","0","2","1","1","2","1","1","2","1","1","1","0","1","1","2","2","1","0","1","1","0","1","1","1","1","2","1","1","1","2","1","1","1","1","1","2","1","1","0","2","2","2","3","2","3","2","3","3","2","3","3","3","2","2","3","3","3","613.0999999940395","","w","","true","0","27","up","down","1","w","1","0","1658765145123","","","false","60","27","0.38333333333333336","0.25","false"
"","html-keyboard-response","139","332115","0.0-6.0-1.28-0.28","008","23","f","1658764813341","q","q","Only if I get the answer right","You win money","A fixed time limit","5","female","Look at the odd white spot","This game is almost inhumanely impossible...","2","0","3","1","1","1","0","2","1","1","2","1","1","2","1","1","1","0","1","1","2","2","1","0","1","1","0","1","1","1","1","2","1","1","1","2","1","1","1","1","1","2","1","1","0","2","2","2","3","2","3","2","3","3","2","3","3","3","2","2","3","3","3","621.0999999940395","<div style=""color:green; font-size:75px;""><b>$0.25</b></div><br><br><br><br><table><tr><td><img src=static/images/oddball_down.png></td><td><img src=static/images/oddball_up.png></td><td><img src=static/images/oddball_down.png></td></tr></table>","87","1","","","","","","","","","","","","","","","","","",""
"","html-keyboard-response","140","332117","0.0-6.0-1.28-1.28","008","23","f","1658764813341","q","q","Only if I get the answer right","You win money","A fixed time limit","5","female","Look at the odd white spot","This game is almost inhumanely impossible...","2","0","3","1","1","1","0","2","1","1","2","1","1","2","1","1","1","0","1","1","2","2","1","0","1","1","0","1","1","1","1","2","1","1","1","2","1","1","1","1","1","2","1","1","0","2","2","2","3","2","3","2","3","3","2","3","3","3","2","2","3","3","3","621.0999999940395","","w","","true","0","28","down","up","1","w","1","0","1658765145747","","","false","60","28","0.4","0.25","false"
