"success","trial_type","trial_index","time_elapsed","internal_node_id","subject","age","sex","date","instQ1","instQ2","instQ3","instQ4","instQ5","totalInstQ","gender","strategy","comments","DASS1_s","DASS2_a","DASS3_d","DASS4_a","DASS5_d","DASS6_s","DASS7_a","DASS8_s","DASS9_a","DASS10_d","DASS11_s","DASS12_s","DASS13_d","DASS14_s","DASS15_a","DASS16_d","DASS17_d","DASS18_s","DASS19_a","DASS20_a","DASS21_d","BB1","BB2","BB3","BB4","BB5","BB6","BB7","BB8","BB9","BB10","BB11","BB12","BB13","BB14","BB15","BB16","BB17","BB18","BB19","BB20","BB21","BB22","BB23","BB24","NFC1","NFC2","NFC3","NFC4","NFC5","NFC6","NFC7","NFC8","NFC9","NFC10","NFC11","NFC12","NFC13","NFC14","NFC15","NFC16","NFC17","NFC18","rt","stimulus","key_press","npress","isDataTrial","block","trialinblock","common","odd","oddidx","correct_ans","accuracy","totalTokens","timestamp","responses","question_order","showprog","blocklen","trial","progress","reward","timedout"
"true","fullscreen","0","24936","0.0-0.0","001","20","F","1658158007027","q","q","Only if I get the answer right","You win money","A fixed time limit","5","F","Switching between left and right hand because one hand can get tired easily (not sure whether it works though)","The angle of the keyboard makes my wrist sore...","2","1","1","0","1","1","1","3","1","0","1","2","1","1","1","1","0","0","1","0","1","1","2","1","0","0","2","0","1","1","0","1","1","1","0","2","1","1","0","0","0","1","0","0","1","3","4","0","1","1","4","1","1","4","4","4","0","2","4","4","4","3","3","","","","","","","","","","","","","","","","","","","","","",""
"","image-keyboard-response","1","29501","0.0-1.0-0.0","001","20","F","1658158007027","q","q","Only if I get the answer right","You win money","A fixed time limit","5","F","Switching between left and right hand because one hand can get tired easily (not sure whether it works though)","The angle of the keyboard makes my wrist sore...","2","1","1","0","1","1","1","3","1","0","1","2","1","1","1","1","0","0","1","0","1","1","2","1","0","0","2","0","1","1","0","1","1","1","0","2","1","1","0","0","0","1","0","0","1","3","4","0","1","1","4","1","1","4","4","4","0","2","4","4","4","3","3","4563.699999988079","static/images/instructions/Slide1.png","39","","","","","","","","","","","","","","","","","","",""
"","image-keyboard-response","2","37651","0.0-1.1-0.1","001","20","F","1658158007027","q","q","Only if I get the answer right","You win money","A fixed time limit","5","F","Switching between left and right hand because one hand can get tired easily (not sure whether it works though)","The angle of the keyboard makes my wrist sore...","2","1","1","0","1","1","1","3","1","0","1","2","1","1","1","1","0","0","1","0","1","1","2","1","0","0","2","0","1","1","0","1","1","1","0","2","1","1","0","0","0","1","0","0","1","3","4","0","1","1","4","1","1","4","4","4","0","2","4","4","4","3","3","8149.200000047684","static/images/instructions/Slide2.png","39","","","","","","","","","","","","","","","","","","",""
"","image-keyboard-response","3","45275","0.0-1.2-0.2","001","20","F","1658158007027","q","q","Only if I get the answer right","You win money","A fixed time limit","5","F","Switching between left and right hand because one hand can get tired easily (not sure whether it works though)","The angle of the keyboard makes my wrist sore...","2","1","1","0","1","1","1","3","1","0","1","2","1","1","1","1","0","0","1","0","1","1","2","1","0","0","2","0","1","1","0","1","1","1","0","2","1","1","0","0","0","1","0","0","1","3","4","0","1","1","4","1","1","4","4","4","0","2","4","4","4","3","3","7622.900000035763","static/images/instructions/Slide3.png","39","","","","","","","","","","","","","","","","","","",""
"","image-keyboard-response","4","47362","0.0-1.3-0.3","001","20","F","1658158007027","q","q","Only if I get the answer right","You win money","A fixed time limit","5","F","Switching between left and right hand because one hand can get tired easily (not sure whether it works though)","The angle of the keyboard makes my wrist sore...","2","1","1","0","1","1","1","3","1","0","1","2","1","1","1","1","0","0","1","0","1","1","2","1","0","0","2","0","1","1","0","1","1","1","0","2","1","1","0","0","0","1","0","0","1","3","4","0","1","1","4","1","1","4","4","4","0","2","4","4","4","3","3","2087.099999964237","static/images/instructions/Slide4.png","39","","","","","","","","","","","","","","","","","","",""
"","image-keyboard-response","5","52798","0.0-1.4-0.4","001","20","F","1658158007027","q","q","Only if I get the answer right","You win money","A fixed time limit","5","F","Switching between left and right hand because one hand can get tired easily (not sure whether it works though)","The angle of the keyboard makes my wrist sore...","2","1","1","0","1","1","1","3","1","0","1","2","1","1","1","1","0","0","1","0","1","1","2","1","0","0","2","0","1","1","0","1","1","1","0","2","1","1","0","0","0","1","0","0","1","3","4","0","1","1","4","1","1","4","4","4","0","2","4","4","4","3","3","5423.300000011921","static/images/instructions/Slide5.png","39","","","","","","","","","","","","","","","","","","",""
"","image-keyboard-response","6","54518","0.0-1.5-0.5","001","20","F","1658158007027","q","q","Only if I get the answer right","You win money","A fixed time limit","5","F","Switching between left and right hand because one hand can get tired easily (not sure whether it works though)","The angle of the keyboard makes my wrist sore...","2","1","1","0","1","1","1","3","1","0","1","2","1","1","1","1","0","0","1","0","1","1","2","1","0","0","2","0","1","1","0","1","1","1","0","2","1","1","0","0","0","1","0","0","1","3","4","0","1","1","4","1","1","4","4","4","0","2","4","4","4","3","3","1719.300000011921","static/images/instructions/Slide6.png","39","","","","","","","","","","","","","","","","","","",""
"","image-keyboard-response","7","64086","0.0-1.6-0.6","001","20","F","1658158007027","q","q","Only if I get the answer right","You win money","A fixed time limit","5","F","Switching between left and right hand because one hand can get tired easily (not sure whether it works though)","The angle of the keyboard makes my wrist sore...","2","1","1","0","1","1","1","3","1","0","1","2","1","1","1","1","0","0","1","0","1","1","2","1","0","0","2","0","1","1","0","1","1","1","0","2","1","1","0","0","0","1","0","0","1","3","4","0","1","1","4","1","1","4","4","4","0","2","4","4","4","3","3","9567.900000035763","static/images/instructions/Slide7.png","39","","","","","","","","","","","","","","","","","","",""
"","html-keyboard-response","8","65411","0.0-2.0-0.0","001","20","F","1658158007027","q","q","Only if I get the answer right","You win money","A fixed time limit","5","F","Switching between left and right hand because one hand can get tired easily (not sure whether it works though)","The angle of the keyboard makes my wrist sore...","2","1","1","0","1","1","1","3","1","0","1","2","1","1","1","1","0","0","1","0","1","1","2","1","0","0","2","0","1","1","0","1","1","1","0","2","1","1","0","0","0","1","0","0","1","3","4","0","1","1","4","1","1","4","4","4","0","2","4","4","4","3","3","1324","<br><br><br><br><table><tr><td><img src=static/images/oddball_down.png></td><td><img src=static/images/oddball_up.png></td><td><img src=static/images/oddball_up.png></td></tr></table>","81","1","","","","","","","","","","","","","","","","","",""
"","html-keyboard-response","9","67913","0.0-2.0-1.0","001","20","F","1658158007027","q","q","Only if I get the answer right","You win money","A fixed time limit","5","F","Switching between left and right hand because one hand can get tired easily (not sure whether it works though)","The angle of the keyboard makes my wrist sore...","2","1","1","0","1","1","1","3","1","0","1","2","1","1","1","1","0","0","1","0","1","1","2","1","0","0","2","0","1","1","0","1","1","1","0","2","1","1","0","0","0","1","0","0","1","3","4","0","1","1","4","1","1","4","4","4","0","2","4","4","4","3","3","null","<div style=""font-size:75px;""><b>Correct</b></div>","null","","","","","","","","","","","","","","","","","","",""
"","html-keyboard-response","10","68921","0.0-2.0-2.0","001","20","F","1658158007027","q","q","Only if I get the answer right","You win money","A fixed time limit","5","F","Switching between left and right hand because one hand can get tired easily (not sure whether it works though)","The angle of the keyboard makes my wrist sore...","2","1","1","0","1","1","1","3","1","0","1","2","1","1","1","1","0","0","1","0","1","1","2","1","0","0","2","0","1","1","0","1","1","1","0","2","1","1","0","0","0","1","0","0","1","3","4","0","1","1","4","1","1","4","4","4","0","2","4","4","4","3","3","1324","","q","","true","practice","0","up","down","0","q","1","0","1658158076692","","","","","","","",""
"","html-keyboard-response","11","69590","0.0-2.1-0.1","001","20","F","1658158007027","q","q","Only if I get the answer right","You win money","A fixed time limit","5","F","Switching between left and right hand because one hand can get tired easily (not sure whether it works though)","The angle of the keyboard makes my wrist sore...","2","1","1","0","1","1","1","3","1","0","1","2","1","1","1","1","0","0","1","0","1","1","2","1","0","0","2","0","1","1","0","1","1","1","0","2","1","1","0","0","0","1","0","0","1","3","4","0","1","1","4","1","1","4","4","4","0","2","4","4","4","3","3","668.8000000119209","<br><br><br><br><table><tr><td><img src=static/images/oddball_up.png></td><td><img src=static/images/oddball_up.png></td><td><img src=static/images/oddball_down.png></td></tr></table>","69","1","","","","","","","","","","","","","","","","","",""
"","html-keyboard-response","12","72105","0.0-2.1-1.1","001","20","F","1658158007027","q","q","Only if I get the answer right","You win money","A fixed time limit","5","F","Switching between left and right hand because one hand can get tired easily (not sure whether it works though)","The angle of the keyboard makes my wrist sore...","2","1","1","0","1","1","1","3","1","0","1","2","1","1","1","1","0","0","1","0","1","1","2","1","0","0","2","0","1","1","0","1","1","1","0","2","1","1","0","0","0","1","0","0","1","3","4","0","1","1","4","1","1","4","4","4","0","2","4","4","4","3","3","null","<div style=""font-size:75px;""><b>Correct</b></div>","null","","","","","","","","","","","","","","","","","","",""
"","html-keyboard-response","13","73115","0.0-2.1-2.1","001","20","F","1658158007027","q","q","Only if I get the answer right","You win money","A fixed time limit","5","F","Switching between left and right hand because one hand can get tired easily (not sure whether it works though)","The angle of the keyboard makes my wrist sore...","2","1","1","0","1","1","1","3","1","0","1","2","1","1","1","1","0","0","1","0","1","1","2","1","0","0","2","0","1","1","0","1","1","1","0","2","1","1","0","0","0","1","0","0","1","3","4","0","1","1","4","1","1","4","4","4","0","2","4","4","4","3","3","668.8000000119209","","e","","true","practice","1","up","down","2","e","1","0","1658158080886","","","","","","","",""
"","html-keyboard-response","14","73782","0.0-2.2-0.2","001","20","F","1658158007027","q","q","Only if I get the answer right","You win money","A fixed time limit","5","F","Switching between left and right hand because one hand can get tired easily (not sure whether it works though)","The angle of the keyboard makes my wrist sore...","2","1","1","0","1","1","1","3","1","0","1","2","1","1","1","1","0","0","1","0","1","1","2","1","0","0","2","0","1","1","0","1","1","1","0","2","1","1","0","0","0","1","0","0","1","3","4","0","1","1","4","1","1","4","4","4","0","2","4","4","4","3","3","666.5","<br><br><br><br><table><tr><td><img src=static/images/oddball_up.png></td><td><img src=static/images/oddball_down.png></td><td><img src=static/images/oddball_up.png></td></tr></table>","87","1","","","","","","","","","","","","","","","","","",""
"","html-keyboard-response","15","76298","0.0-2.2-1.2","001","20","F","1658158007027","q","q","Only if I get the answer right","You win money","A fixed time limit","5","F","Switching between left and right hand because one hand can get tired easily (not sure whether it works though)","The angle of the keyboard makes my wrist sore...","2","1","1","0","1","1","1","3","1","0","1","2","1","1","1","1","0","0","1","0","1","1","2","1","0","0","2","0","1","1","0","1","1","1","0","2","1","1","0","0","0","1","0","0","1","3","4","0","1","1","4","1","1","4","4","4","0","2","4","4","4","3","3","null","<div style=""font-size:75px;""><b>Correct</b></div>","null","","","","","","","","","","","","","","","","","","",""
"","html-keyboard-response","16","77305","0.0-2.2-2.2","001","20","F","1658158007027","q","q","Only if I get the answer right","You win money","A fixed time limit","5","F","Switching between left and right hand because one hand can get tired easily (not sure whether it works though)","The angle of the keyboard makes my wrist sore...","2","1","1","0","1","1","1","3","1","0","1","2","1","1","1","1","0","0","1","0","1","1","2","1","0","0","2","0","1","1","0","1","1","1","0","2","1","1","0","0","0","1","0","0","1","3","4","0","1","1","4","1","1","4","4","4","0","2","4","4","4","3","3","666.5","","w","","true","practice","2","up","down","1","w","1","0","1658158085076","","","","","","","",""
"","html-keyboard-response","17","77958","0.0-2.3-0.3","001","20","F","1658158007027","q","q","Only if I get the answer right","You win money","A fixed time limit","5","F","Switching between left and right hand because one hand can get tired easily (not sure whether it works though)","The angle of the keyboard makes my wrist sore...","2","1","1","0","1","1","1","3","1","0","1","2","1","1","1","1","0","0","1","0","1","1","2","1","0","0","2","0","1","1","0","1","1","1","0","2","1","1","0","0","0","1","0","0","1","3","4","0","1","1","4","1","1","4","4","4","0","2","4","4","4","3","3","653","<br><br><br><br><table><tr><td><img src=static/images/oddball_down.png></td><td><img src=static/images/oddball_up.png></td><td><img src=static/images/oddball_up.png></td></tr></table>","81","1","","","","","","","","","","","","","","","","","",""
"","html-keyboard-response","18","80471","0.0-2.3-1.3","001","20","F","1658158007027","q","q","Only if I get the answer right","You win money","A fixed time limit","5","F","Switching between left and right hand because one hand can get tired easily (not sure whether it works though)","The angle of the keyboard makes my wrist sore...","2","1","1","0","1","1","1","3","1","0","1","2","1","1","1","1","0","0","1","0","1","1","2","1","0","0","2","0","1","1","0","1","1","1","0","2","1","1","0","0","0","1","0","0","1","3","4","0","1","1","4","1","1","4","4","4","0","2","4","4","4","3","3","null","<div style=""font-size:75px;""><b>Correct</b></div>","null","","","","","","","","","","","","","","","","","","",""
"","html-keyboard-response","19","81478","0.0-2.3-2.3","001","20","F","1658158007027","q","q","Only if I get the answer right","You win money","A fixed time limit","5","F","Switching between left and right hand because one hand can get tired easily (not sure whether it works though)","The angle of the keyboard makes my wrist sore...","2","1","1","0","1","1","1","3","1","0","1","2","1","1","1","1","0","0","1","0","1","1","2","1","0","0","2","0","1","1","0","1","1","1","0","2","1","1","0","0","0","1","0","0","1","3","4","0","1","1","4","1","1","4","4","4","0","2","4","4","4","3","3","653","","q","","true","practice","3","up","down","0","q","1","0","1658158089249","","","","","","","",""
"","html-keyboard-response","20","82166","0.0-2.4-0.4","001","20","F","1658158007027","q","q","Only if I get the answer right","You win money","A fixed time limit","5","F","Switching between left and right hand because one hand can get tired easily (not sure whether it works though)","The angle of the keyboard makes my wrist sore...","2","1","1","0","1","1","1","3","1","0","1","2","1","1","1","1","0","0","1","0","1","1","2","1","0","0","2","0","1","1","0","1","1","1","0","2","1","1","0","0","0","1","0","0","1","3","4","0","1","1","4","1","1","4","4","4","0","2","4","4","4","3","3","687.5999999642372","<br><br><br><br><table><tr><td><img src=static/images/oddball_up.png></td><td><img src=static/images/oddball_down.png></td><td><img src=static/images/oddball_down.png></td></tr></table>","81","1","","","","","","","","","","","","","","","","","",""
"","html-keyboard-response","21","84677","0.0-2.4-1.4","001","20","F","1658158007027","q","q","Only if I get the answer right","You win money","A fixed time limit","5","F","Switching between left and right hand because one hand can get tired easily (not sure whether it works though)","The angle of the keyboard makes my wrist sore...","2","1","1","0","1","1","1","3","1","0","1","2","1","1","1","1","0","0","1","0","1","1","2","1","0","0","2","0","1","1","0","1","1","1","0","2","1","1","0","0","0","1","0","0","1","3","4","0","1","1","4","1","1","4","4","4","0","2","4","4","4","3","3","null","<div style=""font-size:75px;""><b>Correct</b></div>","null","","","","","","","","","","","","","","","","","","",""
"","html-keyboard-response","22","85686","0.0-2.4-2.4","001","20","F","1658158007027","q","q","Only if I get the answer right","You win money","A fixed time limit","5","F","Switching between left and right hand because one hand can get tired easily (not sure whether it works though)","The angle of the keyboard makes my wrist sore...","2","1","1","0","1","1","1","3","1","0","1","2","1","1","1","1","0","0","1","0","1","1","2","1","0","0","2","0","1","1","0","1","1","1","0","2","1","1","0","0","0","1","0","0","1","3","4","0","1","1","4","1","1","4","4","4","0","2","4","4","4","3","3","687.5999999642372","","q","","true","practice","4","down","up","0","q","1","0","1658158093457","","","","","","","",""
"","html-keyboard-response","23","86790","0.0-2.5-0.5","001","20","F","1658158007027","q","q","Only if I get the answer right","You win money","A fixed time limit","5","F","Switching between left and right hand because one hand can get tired easily (not sure whether it works though)","The angle of the keyboard makes my wrist sore...","2","1","1","0","1","1","1","3","1","0","1","2","1","1","1","1","0","0","1","0","1","1","2","1","0","0","2","0","1","1","0","1","1","1","0","2","1","1","0","0","0","1","0","0","1","3","4","0","1","1","4","1","1","4","4","4","0","2","4","4","4","3","3","1103.800000011921","<br><br><br><br><table><tr><td><img src=static/images/oddball_up.png></td><td><img src=static/images/oddball_down.png></td><td><img src=static/images/oddball_up.png></td></tr></table>","87","1","","","","","","","","","","","","","","","","","",""
"","html-keyboard-response","24","89303","0.0-2.5-1.5","001","20","F","1658158007027","q","q","Only if I get the answer right","You win money","A fixed time limit","5","F","Switching between left and right hand because one hand can get tired easily (not sure whether it works though)","The angle of the keyboard makes my wrist sore...","2","1","1","0","1","1","1","3","1","0","1","2","1","1","1","1","0","0","1","0","1","1","2","1","0","0","2","0","1","1","0","1","1","1","0","2","1","1","0","0","0","1","0","0","1","3","4","0","1","1","4","1","1","4","4","4","0","2","4","4","4","3","3","null","<div style=""font-size:75px;""><b>Correct</b></div>","null","","","","","","","","","","","","","","","","","","",""
"","html-keyboard-response","25","90312","0.0-2.5-2.5","001","20","F","1658158007027","q","q","Only if I get the answer right","You win money","A fixed time limit","5","F","Switching between left and right hand because one hand can get tired easily (not sure whether it works though)","The angle of the keyboard makes my wrist sore...","2","1","1","0","1","1","1","3","1","0","1","2","1","1","1","1","0","0","1","0","1","1","2","1","0","0","2","0","1","1","0","1","1","1","0","2","1","1","0","0","0","1","0","0","1","3","4","0","1","1","4","1","1","4","4","4","0","2","4","4","4","3","3","1103.800000011921","","w","","true","practice","5","up","down","1","w","1","0","1658158098084","","","","","","","",""
"","html-keyboard-response","26","90998","0.0-2.6-0.6","001","20","F","1658158007027","q","q","Only if I get the answer right","You win money","A fixed time limit","5","F","Switching between left and right hand because one hand can get tired easily (not sure whether it works though)","The angle of the keyboard makes my wrist sore...","2","1","1","0","1","1","1","3","1","0","1","2","1","1","1","1","0","0","1","0","1","1","2","1","0","0","2","0","1","1","0","1","1","1","0","2","1","1","0","0","0","1","0","0","1","3","4","0","1","1","4","1","1","4","4","4","0","2","4","4","4","3","3","685.1000000238419","<br><br><br><br><table><tr><td><img src=static/images/oddball_down.png></td><td><img src=static/images/oddball_down.png></td><td><img src=static/images/oddball_up.png></td></tr></table>","69","1","","","","","","","","","","","","","","","","","",""
"","html-keyboard-response","27","93514","0.0-2.6-1.6","001","20","F","1658158007027","q","q","Only if I get the answer right","You win money","A fixed time limit","5","F","Switching between left and right hand because one hand can get tired easily (not sure whether it works though)","The angle of the keyboard makes my wrist sore...","2","1","1","0","1","1","1","3","1","0","1","2","1","1","1","1","0","0","1","0","1","1","2","1","0","0","2","0","1","1","0","1","1","1","0","2","1","1","0","0","0","1","0","0","1","3","4","0","1","1","4","1","1","4","4","4","0","2","4","4","4","3","3","null","<div style=""font-size:75px;""><b>Correct</b></div>","null","","","","","","","","","","","","","","","","","","",""
"","html-keyboard-response","28","94521","0.0-2.6-2.6","001","20","F","1658158007027","q","q","Only if I get the answer right","You win money","A fixed time limit","5","F","Switching between left and right hand because one hand can get tired easily (not sure whether it works though)","The angle of the keyboard makes my wrist sore...","2","1","1","0","1","1","1","3","1","0","1","2","1","1","1","1","0","0","1","0","1","1","2","1","0","0","2","0","1","1","0","1","1","1","0","2","1","1","0","0","0","1","0","0","1","3","4","0","1","1","4","1","1","4","4","4","0","2","4","4","4","3","3","685.1000000238419","","e","","true","practice","6","down","up","2","e","1","0","1658158102292","","","","","","","",""
"","html-keyboard-response","29","95622","0.0-2.7-0.7","001","20","F","1658158007027","q","q","Only if I get the answer right","You win money","A fixed time limit","5","F","Switching between left and right hand because one hand can get tired easily (not sure whether it works though)","The angle of the keyboard makes my wrist sore...","2","1","1","0","1","1","1","3","1","0","1","2","1","1","1","1","0","0","1","0","1","1","2","1","0","0","2","0","1","1","0","1","1","1","0","2","1","1","0","0","0","1","0","0","1","3","4","0","1","1","4","1","1","4","4","4","0","2","4","4","4","3","3","1100.5","<br><br><br><br><table><tr><td><img src=static/images/oddball_down.png></td><td><img src=static/images/oddball_down.png></td><td><img src=static/images/oddball_up.png></td></tr></table>","69","1","","","","","","","","","","","","","","","","","",""
"","html-keyboard-response","30","98136","0.0-2.7-1.7","001","20","F","1658158007027","q","q","Only if I get the answer right","You win money","A fixed time limit","5","F","Switching between left and right hand because one hand can get tired easily (not sure whether it works though)","The angle of the keyboard makes my wrist sore...","2","1","1","0","1","1","1","3","1","0","1","2","1","1","1","1","0","0","1","0","1","1","2","1","0","0","2","0","1","1","0","1","1","1","0","2","1","1","0","0","0","1","0","0","1","3","4","0","1","1","4","1","1","4","4","4","0","2","4","4","4","3","3","null","<div style=""font-size:75px;""><b>Correct</b></div>","null","","","","","","","","","","","","","","","","","","",""
"","html-keyboard-response","31","99146","0.0-2.7-2.7","001","20","F","1658158007027","q","q","Only if I get the answer right","You win money","A fixed time limit","5","F","Switching between left and right hand because one hand can get tired easily (not sure whether it works though)","The angle of the keyboard makes my wrist sore...","2","1","1","0","1","1","1","3","1","0","1","2","1","1","1","1","0","0","1","0","1","1","2","1","0","0","2","0","1","1","0","1","1","1","0","2","1","1","0","0","0","1","0","0","1","3","4","0","1","1","4","1","1","4","4","4","0","2","4","4","4","3","3","1100.5","","e","","true","practice","7","down","up","2","e","1","0","1658158106917","","","","","","","",""
"","html-keyboard-response","32","99799","0.0-2.8-0.8","001","20","F","1658158007027","q","q","Only if I get the answer right","You win money","A fixed time limit","5","F","Switching between left and right hand because one hand can get tired easily (not sure whether it works though)","The angle of the keyboard makes my wrist sore...","2","1","1","0","1","1","1","3","1","0","1","2","1","1","1","1","0","0","1","0","1","1","2","1","0","0","2","0","1","1","0","1","1","1","0","2","1","1","0","0","0","1","0","0","1","3","4","0","1","1","4","1","1","4","4","4","0","2","4","4","4","3","3","652.4000000357628","<br><br><br><br><table><tr><td><img src=static/images/oddball_up.png></td><td><img src=static/images/oddball_down.png></td><td><img src=static/images/oddball_down.png></td></tr></table>","81","1","","","","","","","","","","","","","","","","","",""
"","html-keyboard-response","33","102312","0.0-2.8-1.8","001","20","F","1658158007027","q","q","Only if I get the answer right","You win money","A fixed time limit","5","F","Switching between left and right hand because one hand can get tired easily (not sure whether it works though)","The angle of the keyboard makes my wrist sore...","2","1","1","0","1","1","1","3","1","0","1","2","1","1","1","1","0","0","1","0","1","1","2","1","0","0","2","0","1","1","0","1","1","1","0","2","1","1","0","0","0","1","0","0","1","3","4","0","1","1","4","1","1","4","4","4","0","2","4","4","4","3","3","null","<div style=""font-size:75px;""><b>Correct</b></div>","null","","","","","","","","","","","","","","","","","","",""
"","html-keyboard-response","34","103319","0.0-2.8-2.8","001","20","F","1658158007027","q","q","Only if I get the answer right","You win money","A fixed time limit","5","F","Switching between left and right hand because one hand can get tired easily (not sure whether it works though)","The angle of the keyboard makes my wrist sore...","2","1","1","0","1","1","1","3","1","0","1","2","1","1","1","1","0","0","1","0","1","1","2","1","0","0","2","0","1","1","0","1","1","1","0","2","1","1","0","0","0","1","0","0","1","3","4","0","1","1","4","1","1","4","4","4","0","2","4","4","4","3","3","652.4000000357628","","q","","true","practice","8","down","up","0","q","1","0","1658158111090","","","","","","","",""
"","html-keyboard-response","35","104966","0.0-2.9-0.9","001","20","F","1658158007027","q","q","Only if I get the answer right","You win money","A fixed time limit","5","F","Switching between left and right hand because one hand can get tired easily (not sure whether it works though)","The angle of the keyboard makes my wrist sore...","2","1","1","0","1","1","1","3","1","0","1","2","1","1","1","1","0","0","1","0","1","1","2","1","0","0","2","0","1","1","0","1","1","1","0","2","1","1","0","0","0","1","0","0","1","3","4","0","1","1","4","1","1","4","4","4","0","2","4","4","4","3","3","1646.800000011921","<br><br><br><br><table><tr><td><img src=static/images/oddball_down.png></td><td><img src=static/images/oddball_up.png></td><td><img src=static/images/oddball_up.png></td></tr></table>","81","1","","","","","","","","","","","","","","","","","",""
"","html-keyboard-response","36","107471","0.0-2.9-1.9","001","20","F","1658158007027","q","q","Only if I get the answer right","You win money","A fixed time limit","5","F","Switching between left and right hand because one hand can get tired easily (not sure whether it works though)","The angle of the keyboard makes my wrist sore...","2","1","1","0","1","1","1","3","1","0","1","2","1","1","1","1","0","0","1","0","1","1","2","1","0","0","2","0","1","1","0","1","1","1","0","2","1","1","0","0","0","1","0","0","1","3","4","0","1","1","4","1","1","4","4","4","0","2","4","4","4","3","3","null","<div style=""font-size:75px;""><b>Correct</b></div>","null","","","","","","","","","","","","","","","","","","",""
"","html-keyboard-response","37","108478","0.0-2.9-2.9","001","20","F","1658158007027","q","q","Only if I get the answer right","You win money","A fixed time limit","5","F","Switching between left and right hand because one hand can get tired easily (not sure whether it works though)","The angle of the keyboard makes my wrist sore...","2","1","1","0","1","1","1","3","1","0","1","2","1","1","1","1","0","0","1","0","1","1","2","1","0","0","2","0","1","1","0","1","1","1","0","2","1","1","0","0","0","1","0","0","1","3","4","0","1","1","4","1","1","4","4","4","0","2","4","4","4","3","3","1646.800000011921","","q","","true","practice","9","up","down","0","q","1","0","1658158116249","","","","","","","",""
"","html-keyboard-response","38","111295","0.0-2.10-0.10","001","20","F","1658158007027","q","q","Only if I get the answer right","You win money","A fixed time limit","5","F","Switching between left and right hand because one hand can get tired easily (not sure whether it works though)","The angle of the keyboard makes my wrist sore...","2","1","1","0","1","1","1","3","1","0","1","2","1","1","1","1","0","0","1","0","1","1","2","1","0","0","2","0","1","1","0","1","1","1","0","2","1","1","0","0","0","1","0","0","1","3","4","0","1","1","4","1","1","4","4","4","0","2","4","4","4","3","3","2816.199999988079","<br><br><br><br><table><tr><td><img src=static/images/oddball_up.png></td><td><img src=static/images/oddball_up.png></td><td><img src=static/images/oddball_down.png></td></tr></table>","69","1","","","","","","","","","","","","","","","","","",""
"","html-keyboard-response","39","113801","0.0-2.10-1.10","001","20","F","1658158007027","q","q","Only if I get the answer right","You win money","A fixed time limit","5","F","Switching between left and right hand because one hand can get tired easily (not sure whether it works though)","The angle of the keyboard makes my wrist sore...","2","1","1","0","1","1","1","3","1","0","1","2","1","1","1","1","0","0","1","0","1","1","2","1","0","0","2","0","1","1","0","1","1","1","0","2","1","1","0","0","0","1","0","0","1","3","4","0","1","1","4","1","1","4","4","4","0","2","4","4","4","3","3","null","<div style=""font-size:75px;""><b>Correct</b></div>","null","","","","","","","","","","","","","","","","","","",""
"","html-keyboard-response","40","114809","0.0-2.10-2.10","001","20","F","1658158007027","q","q","Only if I get the answer right","You win money","A fixed time limit","5","F","Switching between left and right hand because one hand can get tired easily (not sure whether it works though)","The angle of the keyboard makes my wrist sore...","2","1","1","0","1","1","1","3","1","0","1","2","1","1","1","1","0","0","1","0","1","1","2","1","0","0","2","0","1","1","0","1","1","1","0","2","1","1","0","0","0","1","0","0","1","3","4","0","1","1","4","1","1","4","4","4","0","2","4","4","4","3","3","2816.199999988079","","e","","true","practice","10","up","down","2","e","1","0","1658158122580","","","","","","","",""
"","html-keyboard-response","41","115761","0.0-2.11-0.11","001","20","F","1658158007027","q","q","Only if I get the answer right","You win money","A fixed time limit","5","F","Switching between left and right hand because one hand can get tired easily (not sure whether it works though)","The angle of the keyboard makes my wrist sore...","2","1","1","0","1","1","1","3","1","0","1","2","1","1","1","1","0","0","1","0","1","1","2","1","0","0","2","0","1","1","0","1","1","1","0","2","1","1","0","0","0","1","0","0","1","3","4","0","1","1","4","1","1","4","4","4","0","2","4","4","4","3","3","951.1999999880791","<br><br><br><br><table><tr><td><img src=static/images/oddball_down.png></td><td><img src=static/images/oddball_down.png></td><td><img src=static/images/oddball_up.png></td></tr></table>","69","1","","","","","","","","","","","","","","","","","",""
"","html-keyboard-response","42","118275","0.0-2.11-1.11","001","20","F","1658158007027","q","q","Only if I get the answer right","You win money","A fixed time limit","5","F","Switching between left and right hand because one hand can get tired easily (not sure whether it works though)","The angle of the keyboard makes my wrist sore...","2","1","1","0","1","1","1","3","1","0","1","2","1","1","1","1","0","0","1","0","1","1","2","1","0","0","2","0","1","1","0","1","1","1","0","2","1","1","0","0","0","1","0","0","1","3","4","0","1","1","4","1","1","4","4","4","0","2","4","4","4","3","3","null","<div style=""font-size:75px;""><b>Correct</b></div>","null","","","","","","","","","","","","","","","","","","",""
"","html-keyboard-response","43","119286","0.0-2.11-2.11","001","20","F","1658158007027","q","q","Only if I get the answer right","You win money","A fixed time limit","5","F","Switching between left and right hand because one hand can get tired easily (not sure whether it works though)","The angle of the keyboard makes my wrist sore...","2","1","1","0","1","1","1","3","1","0","1","2","1","1","1","1","0","0","1","0","1","1","2","1","0","0","2","0","1","1","0","1","1","1","0","2","1","1","0","0","0","1","0","0","1","3","4","0","1","1","4","1","1","4","4","4","0","2","4","4","4","3","3","951.1999999880791","","e","","true","practice","11","down","up","2","e","1","0","1658158127058","","","","","","","",""
"","html-keyboard-response","44","119936","0.0-2.12-0.12","001","20","F","1658158007027","q","q","Only if I get the answer right","You win money","A fixed time limit","5","F","Switching between left and right hand because one hand can get tired easily (not sure whether it works though)","The angle of the keyboard makes my wrist sore...","2","1","1","0","1","1","1","3","1","0","1","2","1","1","1","1","0","0","1","0","1","1","2","1","0","0","2","0","1","1","0","1","1","1","0","2","1","1","0","0","0","1","0","0","1","3","4","0","1","1","4","1","1","4","4","4","0","2","4","4","4","3","3","649.4000000357628","<br><br><br><br><table><tr><td><img src=static/images/oddball_up.png></td><td><img src=static/images/oddball_down.png></td><td><img src=static/images/oddball_up.png></td></tr></table>","87","1","","","","","","","","","","","","","","","","","",""
"","html-keyboard-response","45","122452","0.0-2.12-1.12","001","20","F","1658158007027","q","q","Only if I get the answer right","You win money","A fixed time limit","5","F","Switching between left and right hand because one hand can get tired easily (not sure whether it works though)","The angle of the keyboard makes my wrist sore...","2","1","1","0","1","1","1","3","1","0","1","2","1","1","1","1","0","0","1","0","1","1","2","1","0","0","2","0","1","1","0","1","1","1","0","2","1","1","0","0","0","1","0","0","1","3","4","0","1","1","4","1","1","4","4","4","0","2","4","4","4","3","3","null","<div style=""font-size:75px;""><b>Correct</b></div>","null","","","","","","","","","","","","","","","","","","",""
"","html-keyboard-response","46","123460","0.0-2.12-2.12","001","20","F","1658158007027","q","q","Only if I get the answer right","You win money","A fixed time limit","5","F","Switching between left and right hand because one hand can get tired easily (not sure whether it works though)","The angle of the keyboard makes my wrist sore...","2","1","1","0","1","1","1","3","1","0","1","2","1","1","1","1","0","0","1","0","1","1","2","1","0","0","2","0","1","1","0","1","1","1","0","2","1","1","0","0","0","1","0","0","1","3","4","0","1","1","4","1","1","4","4","4","0","2","4","4","4","3","3","649.4000000357628","","w","","true","practice","12","up","down","1","w","1","0","1658158131231","","","","","","","",""
"","html-keyboard-response","47","123936","0.0-2.13-0.13","001","20","F","1658158007027","q","q","Only if I get the answer right","You win money","A fixed time limit","5","F","Switching between left and right hand because one hand can get tired easily (not sure whether it works though)","The angle of the keyboard makes my wrist sore...","2","1","1","0","1","1","1","3","1","0","1","2","1","1","1","1","0","0","1","0","1","1","2","1","0","0","2","0","1","1","0","1","1","1","0","2","1","1","0","0","0","1","0","0","1","3","4","0","1","1","4","1","1","4","4","4","0","2","4","4","4","3","3","476.10000002384186","<br><br><br><br><table><tr><td><img src=static/images/oddball_down.png></td><td><img src=static/images/oddball_up.png></td><td><img src=static/images/oddball_down.png></td></tr></table>","87","1","","","","","","","","","","","","","","","","","",""
"","html-keyboard-response","48","126444","0.0-2.13-1.13","001","20","F","1658158007027","q","q","Only if I get the answer right","You win money","A fixed time limit","5","F","Switching between left and right hand because one hand can get tired easily (not sure whether it works though)","The angle of the keyboard makes my wrist sore...","2","1","1","0","1","1","1","3","1","0","1","2","1","1","1","1","0","0","1","0","1","1","2","1","0","0","2","0","1","1","0","1","1","1","0","2","1","1","0","0","0","1","0","0","1","3","4","0","1","1","4","1","1","4","4","4","0","2","4","4","4","3","3","null","<div style=""font-size:75px;""><b>Correct</b></div>","null","","","","","","","","","","","","","","","","","","",""
"","html-keyboard-response","49","127450","0.0-2.13-2.13","001","20","F","1658158007027","q","q","Only if I get the answer right","You win money","A fixed time limit","5","F","Switching between left and right hand because one hand can get tired easily (not sure whether it works though)","The angle of the keyboard makes my wrist sore...","2","1","1","0","1","1","1","3","1","0","1","2","1","1","1","1","0","0","1","0","1","1","2","1","0","0","2","0","1","1","0","1","1","1","0","2","1","1","0","0","0","1","0","0","1","3","4","0","1","1","4","1","1","4","4","4","0","2","4","4","4","3","3","476.10000002384186","","w","","true","practice","13","down","up","1","w","1","0","1658158135221","","","","","","","",""
"","html-keyboard-response","50","128073","0.0-2.14-0.14","001","20","F","1658158007027","q","q","Only if I get the answer right","You win money","A fixed time limit","5","F","Switching between left and right hand because one hand can get tired easily (not sure whether it works though)","The angle of the keyboard makes my wrist sore...","2","1","1","0","1","1","1","3","1","0","1","2","1","1","1","1","0","0","1","0","1","1","2","1","0","0","2","0","1","1","0","1","1","1","0","2","1","1","0","0","0","1","0","0","1","3","4","0","1","1","4","1","1","4","4","4","0","2","4","4","4","3","3","621.8000000119209","<br><br><br><br><table><tr><td><img src=static/images/oddball_up.png></td><td><img src=static/images/oddball_down.png></td><td><img src=static/images/oddball_up.png></td></tr></table>","87","1","","","","","","","","","","","","","","","","","",""
"","html-keyboard-response","51","130581","0.0-2.14-1.14","001","20","F","1658158007027","q","q","Only if I get the answer right","You win money","A fixed time limit","5","F","Switching between left and right hand because one hand can get tired easily (not sure whether it works though)","The angle of the keyboard makes my wrist sore...","2","1","1","0","1","1","1","3","1","0","1","2","1","1","1","1","0","0","1","0","1","1","2","1","0","0","2","0","1","1","0","1","1","1","0","2","1","1","0","0","0","1","0","0","1","3","4","0","1","1","4","1","1","4","4","4","0","2","4","4","4","3","3","null","<div style=""font-size:75px;""><b>Correct</b></div>","null","","","","","","","","","","","","","","","","","","",""
"","html-keyboard-response","52","131593","0.0-2.14-2.14","001","20","F","1658158007027","q","q","Only if I get the answer right","You win money","A fixed time limit","5","F","Switching between left and right hand because one hand can get tired easily (not sure whether it works though)","The angle of the keyboard makes my wrist sore...","2","1","1","0","1","1","1","3","1","0","1","2","1","1","1","1","0","0","1","0","1","1","2","1","0","0","2","0","1","1","0","1","1","1","0","2","1","1","0","0","0","1","0","0","1","3","4","0","1","1","4","1","1","4","4","4","0","2","4","4","4","3","3","621.8000000119209","","w","","true","practice","14","up","down","1","w","1","0","1658158139364","","","","","","","",""
"","html-keyboard-response","53","132313","0.0-2.15-0.15","001","20","F","1658158007027","q","q","Only if I get the answer right","You win money","A fixed time limit","5","F","Switching between left and right hand because one hand can get tired easily (not sure whether it works though)","The angle of the keyboard makes my wrist sore...","2","1","1","0","1","1","1","3","1","0","1","2","1","1","1","1","0","0","1","0","1","1","2","1","0","0","2","0","1","1","0","1","1","1","0","2","1","1","0","0","0","1","0","0","1","3","4","0","1","1","4","1","1","4","4","4","0","2","4","4","4","3","3","718.5999999642372","<br><br><br><br><table><tr><td><img src=static/images/oddball_down.png></td><td><img src=static/images/oddball_up.png></td><td><img src=static/images/oddball_down.png></td></tr></table>","87","1","","","","","","","","","","","","","","","","","",""
"","html-keyboard-response","54","134824","0.0-2.15-1.15","001","20","F","1658158007027","q","q","Only if I get the answer right","You win money","A fixed time limit","5","F","Switching between left and right hand because one hand can get tired easily (not sure whether it works though)","The angle of the keyboard makes my wrist sore...","2","1","1","0","1","1","1","3","1","0","1","2","1","1","1","1","0","0","1","0","1","1","2","1","0","0","2","0","1","1","0","1","1","1","0","2","1","1","0","0","0","1","0","0","1","3","4","0","1","1","4","1","1","4","4","4","0","2","4","4","4","3","3","null","<div style=""font-size:75px;""><b>Correct</b></div>","null","","","","","","","","","","","","","","","","","","",""
"","html-keyboard-response","55","135843","0.0-2.15-2.15","001","20","F","1658158007027","q","q","Only if I get the answer right","You win money","A fixed time limit","5","F","Switching between left and right hand because one hand can get tired easily (not sure whether it works though)","The angle of the keyboard makes my wrist sore...","2","1","1","0","1","1","1","3","1","0","1","2","1","1","1","1","0","0","1","0","1","1","2","1","0","0","2","0","1","1","0","1","1","1","0","2","1","1","0","0","0","1","0","0","1","3","4","0","1","1","4","1","1","4","4","4","0","2","4","4","4","3","3","718.5999999642372","","w","","true","practice","15","down","up","1","w","1","0","1658158143614","","","","","","","",""
"","html-keyboard-response","56","137193","0.0-2.16-0.16","001","20","F","1658158007027","q","q","Only if I get the answer right","You win money","A fixed time limit","5","F","Switching between left and right hand because one hand can get tired easily (not sure whether it works though)","The angle of the keyboard makes my wrist sore...","2","1","1","0","1","1","1","3","1","0","1","2","1","1","1","1","0","0","1","0","1","1","2","1","0","0","2","0","1","1","0","1","1","1","0","2","1","1","0","0","0","1","0","0","1","3","4","0","1","1","4","1","1","4","4","4","0","2","4","4","4","3","3","1349.0999999642372","<br><br><br><br><table><tr><td><img src=static/images/oddball_up.png></td><td><img src=static/images/oddball_down.png></td><td><img src=static/images/oddball_down.png></td></tr></table>","81","1","","","","","","","","","","","","","","","","","",""
"","html-keyboard-response","57","139702","0.0-2.16-1.16","001","20","F","1658158007027","q","q","Only if I get the answer right","You win money","A fixed time limit","5","F","Switching between left and right hand because one hand can get tired easily (not sure whether it works though)","The angle of the keyboard makes my wrist sore...","2","1","1","0","1","1","1","3","1","0","1","2","1","1","1","1","0","0","1","0","1","1","2","1","0","0","2","0","1","1","0","1","1","1","0","2","1","1","0","0","0","1","0","0","1","3","4","0","1","1","4","1","1","4","4","4","0","2","4","4","4","3","3","null","<div style=""font-size:75px;""><b>Correct</b></div>","null","","","","","","","","","","","","","","","","","","",""
"","html-keyboard-response","58","140710","0.0-2.16-2.16","001","20","F","1658158007027","q","q","Only if I get the answer right","You win money","A fixed time limit","5","F","Switching between left and right hand because one hand can get tired easily (not sure whether it works though)","The angle of the keyboard makes my wrist sore...","2","1","1","0","1","1","1","3","1","0","1","2","1","1","1","1","0","0","1","0","1","1","2","1","0","0","2","0","1","1","0","1","1","1","0","2","1","1","0","0","0","1","0","0","1","3","4","0","1","1","4","1","1","4","4","4","0","2","4","4","4","3","3","1349.0999999642372","","q","","true","practice","16","down","up","0","q","1","0","1658158148481","","","","","","","",""
"","html-keyboard-response","59","141337","0.0-2.17-0.17","001","20","F","1658158007027","q","q","Only if I get the answer right","You win money","A fixed time limit","5","F","Switching between left and right hand because one hand can get tired easily (not sure whether it works though)","The angle of the keyboard makes my wrist sore...","2","1","1","0","1","1","1","3","1","0","1","2","1","1","1","1","0","0","1","0","1","1","2","1","0","0","2","0","1","1","0","1","1","1","0","2","1","1","0","0","0","1","0","0","1","3","4","0","1","1","4","1","1","4","4","4","0","2","4","4","4","3","3","625.5999999642372","<br><br><br><br><table><tr><td><img src=static/images/oddball_down.png></td><td><img src=static/images/oddball_up.png></td><td><img src=static/images/oddball_down.png></td></tr></table>","87","1","","","","","","","","","","","","","","","","","",""
"","html-keyboard-response","60","143845","0.0-2.17-1.17","001","20","F","1658158007027","q","q","Only if I get the answer right","You win money","A fixed time limit","5","F","Switching between left and right hand because one hand can get tired easily (not sure whether it works though)","The angle of the keyboard makes my wrist sore...","2","1","1","0","1","1","1","3","1","0","1","2","1","1","1","1","0","0","1","0","1","1","2","1","0","0","2","0","1","1","0","1","1","1","0","2","1","1","0","0","0","1","0","0","1","3","4","0","1","1","4","1","1","4","4","4","0","2","4","4","4","3","3","null","<div style=""font-size:75px;""><b>Correct</b></div>","null","","","","","","","","","","","","","","","","","","",""
"","html-keyboard-response","61","144850","0.0-2.17-2.17","001","20","F","1658158007027","q","q","Only if I get the answer right","You win money","A fixed time limit","5","F","Switching between left and right hand because one hand can get tired easily (not sure whether it works though)","The angle of the keyboard makes my wrist sore...","2","1","1","0","1","1","1","3","1","0","1","2","1","1","1","1","0","0","1","0","1","1","2","1","0","0","2","0","1","1","0","1","1","1","0","2","1","1","0","0","0","1","0","0","1","3","4","0","1","1","4","1","1","4","4","4","0","2","4","4","4","3","3","625.5999999642372","","w","","true","practice","17","down","up","1","w","1","0","1658158152621","","","","","","","",""
"","html-keyboard-response","62","146129","0.0-2.18-0.18","001","20","F","1658158007027","q","q","Only if I get the answer right","You win money","A fixed time limit","5","F","Switching between left and right hand because one hand can get tired easily (not sure whether it works though)","The angle of the keyboard makes my wrist sore...","2","1","1","0","1","1","1","3","1","0","1","2","1","1","1","1","0","0","1","0","1","1","2","1","0","0","2","0","1","1","0","1","1","1","0","2","1","1","0","0","0","1","0","0","1","3","4","0","1","1","4","1","1","4","4","4","0","2","4","4","4","3","3","1278.300000011921","<br><br><br><br><table><tr><td><img src=static/images/oddball_up.png></td><td><img src=static/images/oddball_down.png></td><td><img src=static/images/oddball_up.png></td></tr></table>","87","1","","","","","","","","","","","","","","","","","",""
"","html-keyboard-response","63","148638","0.0-2.18-1.18","001","20","F","1658158007027","q","q","Only if I get the answer right","You win money","A fixed time limit","5","F","Switching between left and right hand because one hand can get tired easily (not sure whether it works though)","The angle of the keyboard makes my wrist sore...","2","1","1","0","1","1","1","3","1","0","1","2","1","1","1","1","0","0","1","0","1","1","2","1","0","0","2","0","1","1","0","1","1","1","0","2","1","1","0","0","0","1","0","0","1","3","4","0","1","1","4","1","1","4","4","4","0","2","4","4","4","3","3","null","<div style=""font-size:75px;""><b>Correct</b></div>","null","","","","","","","","","","","","","","","","","","",""
"","html-keyboard-response","64","149644","0.0-2.18-2.18","001","20","F","1658158007027","q","q","Only if I get the answer right","You win money","A fixed time limit","5","F","Switching between left and right hand because one hand can get tired easily (not sure whether it works though)","The angle of the keyboard makes my wrist sore...","2","1","1","0","1","1","1","3","1","0","1","2","1","1","1","1","0","0","1","0","1","1","2","1","0","0","2","0","1","1","0","1","1","1","0","2","1","1","0","0","0","1","0","0","1","3","4","0","1","1","4","1","1","4","4","4","0","2","4","4","4","3","3","1278.300000011921","","w","","true","practice","18","up","down","1","w","1","0","1658158157415","","","","","","","",""
"","html-keyboard-response","65","150241","0.0-2.19-0.19","001","20","F","1658158007027","q","q","Only if I get the answer right","You win money","A fixed time limit","5","F","Switching between left and right hand because one hand can get tired easily (not sure whether it works though)","The angle of the keyboard makes my wrist sore...","2","1","1","0","1","1","1","3","1","0","1","2","1","1","1","1","0","0","1","0","1","1","2","1","0","0","2","0","1","1","0","1","1","1","0","2","1","1","0","0","0","1","0","0","1","3","4","0","1","1","4","1","1","4","4","4","0","2","4","4","4","3","3","596.3000000119209","<br><br><br><br><table><tr><td><img src=static/images/oddball_up.png></td><td><img src=static/images/oddball_down.png></td><td><img src=static/images/oddball_down.png></td></tr></table>","81","1","","","","","","","","","","","","","","","","","",""
"","html-keyboard-response","66","152742","0.0-2.19-1.19","001","20","F","1658158007027","q","q","Only if I get the answer right","You win money","A fixed time limit","5","F","Switching between left and right hand because one hand can get tired easily (not sure whether it works though)","The angle of the keyboard makes my wrist sore...","2","1","1","0","1","1","1","3","1","0","1","2","1","1","1","1","0","0","1","0","1","1","2","1","0","0","2","0","1","1","0","1","1","1","0","2","1","1","0","0","0","1","0","0","1","3","4","0","1","1","4","1","1","4","4","4","0","2","4","4","4","3","3","null","<div style=""font-size:75px;""><b>Correct</b></div>","null","","","","","","","","","","","","","","","","","","",""
"","html-keyboard-response","67","153750","0.0-2.19-2.19","001","20","F","1658158007027","q","q","Only if I get the answer right","You win money","A fixed time limit","5","F","Switching between left and right hand because one hand can get tired easily (not sure whether it works though)","The angle of the keyboard makes my wrist sore...","2","1","1","0","1","1","1","3","1","0","1","2","1","1","1","1","0","0","1","0","1","1","2","1","0","0","2","0","1","1","0","1","1","1","0","2","1","1","0","0","0","1","0","0","1","3","4","0","1","1","4","1","1","4","4","4","0","2","4","4","4","3","3","596.3000000119209","","q","","true","practice","19","down","up","0","q","1","0","1658158161521","","","","","","","",""
"","image-keyboard-response","68","157985","0.0-3.0-0.0","001","20","F","1658158007027","q","q","Only if I get the answer right","You win money","A fixed time limit","5","F","Switching between left and right hand because one hand can get tired easily (not sure whether it works though)","The angle of the keyboard makes my wrist sore...","2","1","1","0","1","1","1","3","1","0","1","2","1","1","1","1","0","0","1","0","1","1","2","1","0","0","2","0","1","1","0","1","1","1","0","2","1","1","0","0","0","1","0","0","1","3","4","0","1","1","4","1","1","4","4","4","0","2","4","4","4","3","3","4233.800000011921","static/images/instructions/Slide8.png","39","","","","","","","","","","","","","","","","","","",""
"","image-keyboard-response","69","167376","0.0-3.1-0.1","001","20","F","1658158007027","q","q","Only if I get the answer right","You win money","A fixed time limit","5","F","Switching between left and right hand because one hand can get tired easily (not sure whether it works though)","The angle of the keyboard makes my wrist sore...","2","1","1","0","1","1","1","3","1","0","1","2","1","1","1","1","0","0","1","0","1","1","2","1","0","0","2","0","1","1","0","1","1","1","0","2","1","1","0","0","0","1","0","0","1","3","4","0","1","1","4","1","1","4","4","4","0","2","4","4","4","3","3","9391.300000011921","static/images/instructions/Slide9.png","39","","","","","","","","","","","","","","","","","","",""
"","image-keyboard-response","70","175119","0.0-3.2-0.2","001","20","F","1658158007027","q","q","Only if I get the answer right","You win money","A fixed time limit","5","F","Switching between left and right hand because one hand can get tired easily (not sure whether it works though)","The angle of the keyboard makes my wrist sore...","2","1","1","0","1","1","1","3","1","0","1","2","1","1","1","1","0","0","1","0","1","1","2","1","0","0","2","0","1","1","0","1","1","1","0","2","1","1","0","0","0","1","0","0","1","3","4","0","1","1","4","1","1","4","4","4","0","2","4","4","4","3","3","7743.300000011921","static/images/instructions/Slide10.png","39","","","","","","","","","","","","","","","","","","",""
"","image-keyboard-response","71","183431","0.0-3.3-0.3","001","20","F","1658158007027","q","q","Only if I get the answer right","You win money","A fixed time limit","5","F","Switching between left and right hand because one hand can get tired easily (not sure whether it works though)","The angle of the keyboard makes my wrist sore...","2","1","1","0","1","1","1","3","1","0","1","2","1","1","1","1","0","0","1","0","1","1","2","1","0","0","2","0","1","1","0","1","1","1","0","2","1","1","0","0","0","1","0","0","1","3","4","0","1","1","4","1","1","4","4","4","0","2","4","4","4","3","3","8311.300000011921","static/images/instructions/Slide11.png","39","","","","","","","","","","","","","","","","","","",""
"","image-keyboard-response","72","186583","0.0-3.4-0.4","001","20","F","1658158007027","q","q","Only if I get the answer right","You win money","A fixed time limit","5","F","Switching between left and right hand because one hand can get tired easily (not sure whether it works though)","The angle of the keyboard makes my wrist sore...","2","1","1","0","1","1","1","3","1","0","1","2","1","1","1","1","0","0","1","0","1","1","2","1","0","0","2","0","1","1","0","1","1","1","0","2","1","1","0","0","0","1","0","0","1","3","4","0","1","1","4","1","1","4","4","4","0","2","4","4","4","3","3","3151.400000035763","static/images/instructions/Slide12.png","39","","","","","","","","","","","","","","","","","","",""
"","image-keyboard-response","73","190599","0.0-3.5-0.5","001","20","F","1658158007027","q","q","Only if I get the answer right","You win money","A fixed time limit","5","F","Switching between left and right hand because one hand can get tired easily (not sure whether it works though)","The angle of the keyboard makes my wrist sore...","2","1","1","0","1","1","1","3","1","0","1","2","1","1","1","1","0","0","1","0","1","1","2","1","0","0","2","0","1","1","0","1","1","1","0","2","1","1","0","0","0","1","0","0","1","3","4","0","1","1","4","1","1","4","4","4","0","2","4","4","4","3","3","4015.300000011921","static/images/instructions/Slide13.png","39","","","","","","","","","","","","","","","","","","",""
"","image-keyboard-response","74","198199","0.0-3.6-0.6","001","20","F","1658158007027","q","q","Only if I get the answer right","You win money","A fixed time limit","5","F","Switching between left and right hand because one hand can get tired easily (not sure whether it works though)","The angle of the keyboard makes my wrist sore...","2","1","1","0","1","1","1","3","1","0","1","2","1","1","1","1","0","0","1","0","1","1","2","1","0","0","2","0","1","1","0","1","1","1","0","2","1","1","0","0","0","1","0","0","1","3","4","0","1","1","4","1","1","4","4","4","0","2","4","4","4","3","3","7599.5","static/images/instructions/Slide14.png","39","","","","","","","","","","","","","","","","","","",""
"","image-keyboard-response","75","204503","0.0-3.7-0.7","001","20","F","1658158007027","q","q","Only if I get the answer right","You win money","A fixed time limit","5","F","Switching between left and right hand because one hand can get tired easily (not sure whether it works though)","The angle of the keyboard makes my wrist sore...","2","1","1","0","1","1","1","3","1","0","1","2","1","1","1","1","0","0","1","0","1","1","2","1","0","0","2","0","1","1","0","1","1","1","0","2","1","1","0","0","0","1","0","0","1","3","4","0","1","1","4","1","1","4","4","4","0","2","4","4","4","3","3","6303.300000011921","static/images/instructions/Slide15.png","39","","","","","","","","","","","","","","","","","","",""
"","image-keyboard-response","76","227127","0.0-3.8-0.8","001","20","F","1658158007027","q","q","Only if I get the answer right","You win money","A fixed time limit","5","F","Switching between left and right hand because one hand can get tired easily (not sure whether it works though)","The angle of the keyboard makes my wrist sore...","2","1","1","0","1","1","1","3","1","0","1","2","1","1","1","1","0","0","1","0","1","1","2","1","0","0","2","0","1","1","0","1","1","1","0","2","1","1","0","0","0","1","0","0","1","3","4","0","1","1","4","1","1","4","4","4","0","2","4","4","4","3","3","22623.80000001192","static/images/instructions/Slide16.png","39","","","","","","","","","","","","","","","","","","",""
"","image-keyboard-response","77","229903","0.0-3.9-0.9","001","20","F","1658158007027","q","q","Only if I get the answer right","You win money","A fixed time limit","5","F","Switching between left and right hand because one hand can get tired easily (not sure whether it works though)","The angle of the keyboard makes my wrist sore...","2","1","1","0","1","1","1","3","1","0","1","2","1","1","1","1","0","0","1","0","1","1","2","1","0","0","2","0","1","1","0","1","1","1","0","2","1","1","0","0","0","1","0","0","1","3","4","0","1","1","4","1","1","4","4","4","0","2","4","4","4","3","3","2775.300000011921","static/images/instructions/Slide17.png","39","","","","","","","","","","","","","","","","","","",""
"","survey-multi-choice","78","256865","0.0-4.0","001","20","F","1658158007027","q","q","Only if I get the answer right","You win money","A fixed time limit","5","F","Switching between left and right hand because one hand can get tired easily (not sure whether it works though)","The angle of the keyboard makes my wrist sore...","2","1","1","0","1","1","1","3","1","0","1","2","1","1","1","1","0","0","1","0","1","1","2","1","0","0","2","0","1","1","0","1","1","1","0","2","1","1","0","0","0","1","0","0","1","3","4","0","1","1","4","1","1","4","4","4","0","2","4","4","4","3","3","26959.099999964237","","","","","","","","","","","","","","{""q1"":""q"",""q2"":""q"",""q3"":""Only if I get the answer right"",""q4"":""You win money"",""q5"":""A fixed time limit""}","[2,0,1,3,4]","","","","","",""
"","image-keyboard-response","79","261056","0.0-5.0-0.0","001","20","F","1658158007027","q","q","Only if I get the answer right","You win money","A fixed time limit","5","F","Switching between left and right hand because one hand can get tired easily (not sure whether it works though)","The angle of the keyboard makes my wrist sore...","2","1","1","0","1","1","1","3","1","0","1","2","1","1","1","1","0","0","1","0","1","1","2","1","0","0","2","0","1","1","0","1","1","1","0","2","1","1","0","0","0","1","0","0","1","3","4","0","1","1","4","1","1","4","4","4","0","2","4","4","4","3","3","4189.600000023842","static/images/instructions/Slide18.png","39","","","","","","","","","","","","","","","","","","",""
"","html-keyboard-response","80","262066","0.0-6.0-0.0-0.0","001","20","F","1658158007027","q","q","Only if I get the answer right","You win money","A fixed time limit","5","F","Switching between left and right hand because one hand can get tired easily (not sure whether it works though)","The angle of the keyboard makes my wrist sore...","2","1","1","0","1","1","1","3","1","0","1","2","1","1","1","1","0","0","1","0","1","1","2","1","0","0","2","0","1","1","0","1","1","1","0","2","1","1","0","0","0","1","0","0","1","3","4","0","1","1","4","1","1","4","4","4","0","2","4","4","4","3","3","null","<div style=""font-size:75px;"">3</div>","null","","","","","","","","","","","","","","","","","","",""
"","html-keyboard-response","81","263069","0.0-6.0-0.1-0.1","001","20","F","1658158007027","q","q","Only if I get the answer right","You win money","A fixed time limit","5","F","Switching between left and right hand because one hand can get tired easily (not sure whether it works though)","The angle of the keyboard makes my wrist sore...","2","1","1","0","1","1","1","3","1","0","1","2","1","1","1","1","0","0","1","0","1","1","2","1","0","0","2","0","1","1","0","1","1","1","0","2","1","1","0","0","0","1","0","0","1","3","4","0","1","1","4","1","1","4","4","4","0","2","4","4","4","3","3","null","<div style=""font-size:75px;"">2</div>","null","","","","","","","","","","","","","","","","","","",""
"","html-keyboard-response","82","264072","0.0-6.0-0.2-0.2","001","20","F","1658158007027","q","q","Only if I get the answer right","You win money","A fixed time limit","5","F","Switching between left and right hand because one hand can get tired easily (not sure whether it works though)","The angle of the keyboard makes my wrist sore...","2","1","1","0","1","1","1","3","1","0","1","2","1","1","1","1","0","0","1","0","1","1","2","1","0","0","2","0","1","1","0","1","1","1","0","2","1","1","0","0","0","1","0","0","1","3","4","0","1","1","4","1","1","4","4","4","0","2","4","4","4","3","3","null","<div style=""font-size:75px;"">1</div>","null","","","","","","","","","","","","","","","","","","",""
"","html-keyboard-response","83","264769","0.0-6.0-1.0-0.0","001","20","F","1658158007027","q","q","Only if I get the answer right","You win money","A fixed time limit","5","F","Switching between left and right hand because one hand can get tired easily (not sure whether it works though)","The angle of the keyboard makes my wrist sore...","2","1","1","0","1","1","1","3","1","0","1","2","1","1","1","1","0","0","1","0","1","1","2","1","0","0","2","0","1","1","0","1","1","1","0","2","1","1","0","0","0","1","0","0","1","3","4","0","1","1","4","1","1","4","4","4","0","2","4","4","4","3","3","696.1000000238419","<div style=""color:green; font-size:75px;""><b>$0.25</b></div><br><br><br><br><table><tr><td><img src=static/images/oddball_down.png></td><td><img src=static/images/oddball_up.png></td><td><img src=static/images/oddball_up.png></td></tr></table>","81","1","","","","","","","","","","","","","","","","","",""
"","html-keyboard-response","84","264771","0.0-6.0-1.0-1.0","001","20","F","1658158007027","q","q","Only if I get the answer right","You win money","A fixed time limit","5","F","Switching between left and right hand because one hand can get tired easily (not sure whether it works though)","The angle of the keyboard makes my wrist sore...","2","1","1","0","1","1","1","3","1","0","1","2","1","1","1","1","0","0","1","0","1","1","2","1","0","0","2","0","1","1","0","1","1","1","0","2","1","1","0","0","0","1","0","0","1","3","4","0","1","1","4","1","1","4","4","4","0","2","4","4","4","3","3","696.1000000238419","","q","","true","0","0","up","down","0","q","1","0","1658158272542","","","false","60","0","0","0.25","null"
"","html-keyboard-response","85","265525","0.0-6.0-1.1-0.1","001","20","F","1658158007027","q","q","Only if I get the answer right","You win money","A fixed time limit","5","F","Switching between left and right hand because one hand can get tired easily (not sure whether it works though)","The angle of the keyboard makes my wrist sore...","2","1","1","0","1","1","1","3","1","0","1","2","1","1","1","1","0","0","1","0","1","1","2","1","0","0","2","0","1","1","0","1","1","1","0","2","1","1","0","0","0","1","0","0","1","3","4","0","1","1","4","1","1","4","4","4","0","2","4","4","4","3","3","null","<div style=""color:green; font-size:75px;""><b>$0.25</b></div><br><br><br><br><table><tr><td><img src=static/images/oddball_up.png></td><td><img src=static/images/oddball_down.png></td><td><img src=static/images/oddball_down.png></td></tr></table>","null","","","","","","","","","","","","","","","","","","",""
"","html-keyboard-response","86","265527","0.0-6.0-1.1-1.1","001","20","F","1658158007027","q","q","Only if I get the answer right","You win money","A fixed time limit","5","F","Switching between left and right hand because one hand can get tired easily (not sure whether it works though)","The angle of the keyboard makes my wrist sore...","2","1","1","0","1","1","1","3","1","0","1","2","1","1","1","1","0","0","1","0","1","1","2","1","0","0","2","0","1","1","0","1","1","1","0","2","1","1","0","0","0","1","0","0","1","3","4","0","1","1","4","1","1","4","4","4","0","2","4","4","4","3","3","null","","null","","true","0","1","down","up","0","q","0","0","1658158273298","","","false","60","1","0.016666666666666666","0.25","true"
"","html-keyboard-response","87","265673","0.0-6.0-1.2-0.2","001","20","F","1658158007027","q","q","Only if I get the answer right","You win money","A fixed time limit","5","F","Switching between left and right hand because one hand can get tired easily (not sure whether it works though)","The angle of the keyboard makes my wrist sore...","2","1","1","0","1","1","1","3","1","0","1","2","1","1","1","1","0","0","1","0","1","1","2","1","0","0","2","0","1","1","0","1","1","1","0","2","1","1","0","0","0","1","0","0","1","3","4","0","1","1","4","1","1","4","4","4","0","2","4","4","4","3","3","144.89999997615814","<div style=""color:green; font-size:75px;""><b>$0.25</b></div><br><br><br><br><table><tr><td><img src=static/images/oddball_down.png></td><td><img src=static/images/oddball_up.png></td><td><img src=static/images/oddball_up.png></td></tr></table>","81","1","","","","","","","","","","","","","","","","","",""
"","html-keyboard-response","88","265676","0.0-6.0-1.2-1.2","001","20","F","1658158007027","q","q","Only if I get the answer right","You win money","A fixed time limit","5","F","Switching between left and right hand because one hand can get tired easily (not sure whether it works though)","The angle of the keyboard makes my wrist sore...","2","1","1","0","1","1","1","3","1","0","1","2","1","1","1","1","0","0","1","0","1","1","2","1","0","0","2","0","1","1","0","1","1","1","0","2","1","1","0","0","0","1","0","0","1","3","4","0","1","1","4","1","1","4","4","4","0","2","4","4","4","3","3","144.89999997615814","","q","","true","0","2","up","down","0","q","1","0","1658158273447","","","false","60","2","0.016666666666666666","0.25","false"
"","html-keyboard-response","89","266272","0.0-6.0-1.3-0.3","001","20","F","1658158007027","q","q","Only if I get the answer right","You win money","A fixed time limit","5","F","Switching between left and right hand because one hand can get tired easily (not sure whether it works though)","The angle of the keyboard makes my wrist sore...","2","1","1","0","1","1","1","3","1","0","1","2","1","1","1","1","0","0","1","0","1","1","2","1","0","0","2","0","1","1","0","1","1","1","0","2","1","1","0","0","0","1","0","0","1","3","4","0","1","1","4","1","1","4","4","4","0","2","4","4","4","3","3","596.0999999642372","<div style=""color:green; font-size:75px;""><b>$0.25</b></div><br><br><br><br><table><tr><td><img src=static/images/oddball_up.png></td><td><img src=static/images/oddball_up.png></td><td><img src=static/images/oddball_down.png></td></tr></table>","69","1","","","","","","","","","","","","","","","","","",""
"","html-keyboard-response","90","266275","0.0-6.0-1.3-1.3","001","20","F","1658158007027","q","q","Only if I get the answer right","You win money","A fixed time limit","5","F","Switching between left and right hand because one hand can get tired easily (not sure whether it works though)","The angle of the keyboard makes my wrist sore...","2","1","1","0","1","1","1","3","1","0","1","2","1","1","1","1","0","0","1","0","1","1","2","1","0","0","2","0","1","1","0","1","1","1","0","2","1","1","0","0","0","1","0","0","1","3","4","0","1","1","4","1","1","4","4","4","0","2","4","4","4","3","3","596.0999999642372","","e","","true","0","3","up","down","2","e","1","0","1658158274046","","","false","60","3","0.03333333333333333","0.25","false"
"","html-keyboard-response","91","266816","0.0-6.0-1.4-0.4","001","20","F","1658158007027","q","q","Only if I get the answer right","You win money","A fixed time limit","5","F","Switching between left and right hand because one hand can get tired easily (not sure whether it works though)","The angle of the keyboard makes my wrist sore...","2","1","1","0","1","1","1","3","1","0","1","2","1","1","1","1","0","0","1","0","1","1","2","1","0","0","2","0","1","1","0","1","1","1","0","2","1","1","0","0","0","1","0","0","1","3","4","0","1","1","4","1","1","4","4","4","0","2","4","4","4","3","3","540.3000000119209","<div style=""color:green; font-size:75px;""><b>$0.25</b></div><br><br><br><br><table><tr><td><img src=static/images/oddball_up.png></td><td><img src=static/images/oddball_down.png></td><td><img src=static/images/oddball_down.png></td></tr></table>","81","1","","","","","","","","","","","","","","","","","",""
"","html-keyboard-response","92","266819","0.0-6.0-1.4-1.4","001","20","F","1658158007027","q","q","Only if I get the answer right","You win money","A fixed time limit","5","F","Switching between left and right hand because one hand can get tired easily (not sure whether it works though)","The angle of the keyboard makes my wrist sore...","2","1","1","0","1","1","1","3","1","0","1","2","1","1","1","1","0","0","1","0","1","1","2","1","0","0","2","0","1","1","0","1","1","1","0","2","1","1","0","0","0","1","0","0","1","3","4","0","1","1","4","1","1","4","4","4","0","2","4","4","4","3","3","540.3000000119209","","q","","true","0","4","down","up","0","q","1","0","1658158274590","","","false","60","4","0.05","0.25","false"
"","html-keyboard-response","93","267561","0.0-6.0-1.5-0.5","001","20","F","1658158007027","q","q","Only if I get the answer right","You win money","A fixed time limit","5","F","Switching between left and right hand because one hand can get tired easily (not sure whether it works though)","The angle of the keyboard makes my wrist sore...","2","1","1","0","1","1","1","3","1","0","1","2","1","1","1","1","0","0","1","0","1","1","2","1","0","0","2","0","1","1","0","1","1","1","0","2","1","1","0","0","0","1","0","0","1","3","4","0","1","1","4","1","1","4","4","4","0","2","4","4","4","3","3","741","<div style=""color:green; font-size:75px;""><b>$0.25</b></div><br><br><br><br><table><tr><td><img src=static/images/oddball_down.png></td><td><img src=static/images/oddball_up.png></td><td><img src=static/images/oddball_down.png></td></tr></table>","87","1","","","","","","","","","","","","","","","","","",""
"","html-keyboard-response","94","267563","0.0-6.0-1.5-1.5","001","20","F","1658158007027","q","q","Only if I get the answer right","You win money","A fixed time limit","5","F","Switching between left and right hand because one hand can get tired easily (not sure whether it works though)","The angle of the keyboard makes my wrist sore...","2","1","1","0","1","1","1","3","1","0","1","2","1","1","1","1","0","0","1","0","1","1","2","1","0","0","2","0","1","1","0","1","1","1","0","2","1","1","0","0","0","1","0","0","1","3","4","0","1","1","4","1","1","4","4","4","0","2","4","4","4","3","3","741","","w","","true","0","5","down","up","1","w","1","0","1658158275334","","","false","60","5","0.06666666666666667","0.25","false"
"","html-keyboard-response","95","268169","0.0-6.0-1.6-0.6","001","20","F","1658158007027","q","q","Only if I get the answer right","You win money","A fixed time limit","5","F","Switching between left and right hand because one hand can get tired easily (not sure whether it works though)","The angle of the keyboard makes my wrist sore...","2","1","1","0","1","1","1","3","1","0","1","2","1","1","1","1","0","0","1","0","1","1","2","1","0","0","2","0","1","1","0","1","1","1","0","2","1","1","0","0","0","1","0","0","1","3","4","0","1","1","4","1","1","4","4","4","0","2","4","4","4","3","3","605.3999999761581","<div style=""color:green; font-size:75px;""><b>$0.25</b></div><br><br><br><br><table><tr><td><img src=static/images/oddball_up.png></td><td><img src=static/images/oddball_down.png></td><td><img src=static/images/oddball_down.png></td></tr></table>","81","1","","","","","","","","","","","","","","","","","",""
"","html-keyboard-response","96","268171","0.0-6.0-1.6-1.6","001","20","F","1658158007027","q","q","Only if I get the answer right","You win money","A fixed time limit","5","F","Switching between left and right hand because one hand can get tired easily (not sure whether it works though)","The angle of the keyboard makes my wrist sore...","2","1","1","0","1","1","1","3","1","0","1","2","1","1","1","1","0","0","1","0","1","1","2","1","0","0","2","0","1","1","0","1","1","1","0","2","1","1","0","0","0","1","0","0","1","3","4","0","1","1","4","1","1","4","4","4","0","2","4","4","4","3","3","605.3999999761581","","q","","true","0","6","down","up","0","q","1","0","1658158275942","","","false","60","6","0.08333333333333333","0.25","false"
"","html-keyboard-response","97","268865","0.0-6.0-1.7-0.7","001","20","F","1658158007027","q","q","Only if I get the answer right","You win money","A fixed time limit","5","F","Switching between left and right hand because one hand can get tired easily (not sure whether it works though)","The angle of the keyboard makes my wrist sore...","2","1","1","0","1","1","1","3","1","0","1","2","1","1","1","1","0","0","1","0","1","1","2","1","0","0","2","0","1","1","0","1","1","1","0","2","1","1","0","0","0","1","0","0","1","3","4","0","1","1","4","1","1","4","4","4","0","2","4","4","4","3","3","692.8000000119209","<div style=""color:green; font-size:75px;""><b>$0.25</b></div><br><br><br><br><table><tr><td><img src=static/images/oddball_up.png></td><td><img src=static/images/oddball_down.png></td><td><img src=static/images/oddball_up.png></td></tr></table>","87","1","","","","","","","","","","","","","","","","","",""
"","html-keyboard-response","98","268867","0.0-6.0-1.7-1.7","001","20","F","1658158007027","q","q","Only if I get the answer right","You win money","A fixed time limit","5","F","Switching between left and right hand because one hand can get tired easily (not sure whether it works though)","The angle of the keyboard makes my wrist sore...","2","1","1","0","1","1","1","3","1","0","1","2","1","1","1","1","0","0","1","0","1","1","2","1","0","0","2","0","1","1","0","1","1","1","0","2","1","1","0","0","0","1","0","0","1","3","4","0","1","1","4","1","1","4","4","4","0","2","4","4","4","3","3","692.8000000119209","","w","","true","0","7","up","down","1","w","1","0","1658158276638","","","false","60","7","0.1","0.25","false"
"","html-keyboard-response","99","269625","0.0-6.0-1.8-0.8","001","20","F","1658158007027","q","q","Only if I get the answer right","You win money","A fixed time limit","5","F","Switching between left and right hand because one hand can get tired easily (not sure whether it works though)","The angle of the keyboard makes my wrist sore...","2","1","1","0","1","1","1","3","1","0","1","2","1","1","1","1","0","0","1","0","1","1","2","1","0","0","2","0","1","1","0","1","1","1","0","2","1","1","0","0","0","1","0","0","1","3","4","0","1","1","4","1","1","4","4","4","0","2","4","4","4","3","3","null","<div style=""color:green; font-size:75px;""><b>$0.25</b></div><br><br><br><br><table><tr><td><img src=static/images/oddball_down.png></td><td><img src=static/images/oddball_up.png></td><td><img src=static/images/oddball_down.png></td></tr></table>","null","","","","","","","","","","","","","","","","","","",""
"","html-keyboard-response","100","269628","0.0-6.0-1.8-1.8","001","20","F","1658158007027","q","q","Only if I get the answer right","You win money","A fixed time limit","5","F","Switching between left and right hand because one hand can get tired easily (not sure whether it works though)","The angle of the keyboard makes my wrist sore...","2","1","1","0","1","1","1","3","1","0","1","2","1","1","1","1","0","0","1","0","1","1","2","1","0","0","2","0","1","1","0","1","1","1","0","2","1","1","0","0","0","1","0","0","1","3","4","0","1","1","4","1","1","4","4","4","0","2","4","4","4","3","3","null","","null","","true","0","8","down","up","1","w","0","0","1658158277399","","","false","60","8","0.11666666666666667","0.25","true"
"","html-keyboard-response","101","269632","0.0-6.0-1.9-0.9","001","20","F","1658158007027","q","q","Only if I get the answer right","You win money","A fixed time limit","5","F","Switching between left and right hand because one hand can get tired easily (not sure whether it works though)","The angle of the keyboard makes my wrist sore...","2","1","1","0","1","1","1","3","1","0","1","2","1","1","1","1","0","0","1","0","1","1","2","1","0","0","2","0","1","1","0","1","1","1","0","2","1","1","0","0","0","1","0","0","1","3","4","0","1","1","4","1","1","4","4","4","0","2","4","4","4","3","3","4.400000035762787","<div style=""color:green; font-size:75px;""><b>$0.25</b></div><br><br><br><br><table><tr><td><img src=static/images/oddball_down.png></td><td><img src=static/images/oddball_down.png></td><td><img src=static/images/oddball_up.png></td></tr></table>","87","1","","","","","","","","","","","","","","","","","",""
"","html-keyboard-response","102","269634","0.0-6.0-1.9-1.9","001","20","F","1658158007027","q","q","Only if I get the answer right","You win money","A fixed time limit","5","F","Switching between left and right hand because one hand can get tired easily (not sure whether it works though)","The angle of the keyboard makes my wrist sore...","2","1","1","0","1","1","1","3","1","0","1","2","1","1","1","1","0","0","1","0","1","1","2","1","0","0","2","0","1","1","0","1","1","1","0","2","1","1","0","0","0","1","0","0","1","3","4","0","1","1","4","1","1","4","4","4","0","2","4","4","4","3","3","4.400000035762787","","w","","true","0","9","down","up","2","e","0","0","1658158277405","","","false","60","9","0.11666666666666667","0.25","false"
"","html-keyboard-response","103","270297","0.0-6.0-1.10-0.10","001","20","F","1658158007027","q","q","Only if I get the answer right","You win money","A fixed time limit","5","F","Switching between left and right hand because one hand can get tired easily (not sure whether it works though)","The angle of the keyboard makes my wrist sore...","2","1","1","0","1","1","1","3","1","0","1","2","1","1","1","1","0","0","1","0","1","1","2","1","0","0","2","0","1","1","0","1","1","1","0","2","1","1","0","0","0","1","0","0","1","3","4","0","1","1","4","1","1","4","4","4","0","2","4","4","4","3","3","661.8000000119209","<div style=""color:green; font-size:75px;""><b>$0.25</b></div><br><br><br><br><table><tr><td><img src=static/images/oddball_up.png></td><td><img src=static/images/oddball_up.png></td><td><img src=static/images/oddball_down.png></td></tr></table>","69","1","","","","","","","","","","","","","","","","","",""
"","html-keyboard-response","104","270299","0.0-6.0-1.10-1.10","001","20","F","1658158007027","q","q","Only if I get the answer right","You win money","A fixed time limit","5","F","Switching between left and right hand because one hand can get tired easily (not sure whether it works though)","The angle of the keyboard makes my wrist sore...","2","1","1","0","1","1","1","3","1","0","1","2","1","1","1","1","0","0","1","0","1","1","2","1","0","0","2","0","1","1","0","1","1","1","0","2","1","1","0","0","0","1","0","0","1","3","4","0","1","1","4","1","1","4","4","4","0","2","4","4","4","3","3","661.8000000119209","","e","","true","0","10","up","down","2","e","1","0","1658158278070","","","false","60","10","0.11666666666666667","0.25","false"
"","html-keyboard-response","105","270913","0.0-6.0-1.11-0.11","001","20","F","1658158007027","q","q","Only if I get the answer right","You win money","A fixed time limit","5","F","Switching between left and right hand because one hand can get tired easily (not sure whether it works though)","The angle of the keyboard makes my wrist sore...","2","1","1","0","1","1","1","3","1","0","1","2","1","1","1","1","0","0","1","0","1","1","2","1","0","0","2","0","1","1","0","1","1","1","0","2","1","1","0","0","0","1","0","0","1","3","4","0","1","1","4","1","1","4","4","4","0","2","4","4","4","3","3","613","<div style=""color:green; font-size:75px;""><b>$0.25</b></div><br><br><br><br><table><tr><td><img src=static/images/oddball_up.png></td><td><img src=static/images/oddball_up.png></td><td><img src=static/images/oddball_down.png></td></tr></table>","69","1","","","","","","","","","","","","","","","","","",""
"","html-keyboard-response","106","270915","0.0-6.0-1.11-1.11","001","20","F","1658158007027","q","q","Only if I get the answer right","You win money","A fixed time limit","5","F","Switching between left and right hand because one hand can get tired easily (not sure whether it works though)","The angle of the keyboard makes my wrist sore...","2","1","1","0","1","1","1","3","1","0","1","2","1","1","1","1","0","0","1","0","1","1","2","1","0","0","2","0","1","1","0","1","1","1","0","2","1","1","0","0","0","1","0","0","1","3","4","0","1","1","4","1","1","4","4","4","0","2","4","4","4","3","3","613","","e","","true","0","11","up","down","2","e","1","0","1658158278686","","","false","60","11","0.13333333333333333","0.25","false"
"","html-keyboard-response","107","271521","0.0-6.0-1.12-0.12","001","20","F","1658158007027","q","q","Only if I get the answer right","You win money","A fixed time limit","5","F","Switching between left and right hand because one hand can get tired easily (not sure whether it works though)","The angle of the keyboard makes my wrist sore...","2","1","1","0","1","1","1","3","1","0","1","2","1","1","1","1","0","0","1","0","1","1","2","1","0","0","2","0","1","1","0","1","1","1","0","2","1","1","0","0","0","1","0","0","1","3","4","0","1","1","4","1","1","4","4","4","0","2","4","4","4","3","3","605.2999999523163","<div style=""color:green; font-size:75px;""><b>$0.25</b></div><br><br><br><br><table><tr><td><img src=static/images/oddball_up.png></td><td><img src=static/images/oddball_down.png></td><td><img src=static/images/oddball_up.png></td></tr></table>","87","1","","","","","","","","","","","","","","","","","",""
"","html-keyboard-response","108","271523","0.0-6.0-1.12-1.12","001","20","F","1658158007027","q","q","Only if I get the answer right","You win money","A fixed time limit","5","F","Switching between left and right hand because one hand can get tired easily (not sure whether it works though)","The angle of the keyboard makes my wrist sore...","2","1","1","0","1","1","1","3","1","0","1","2","1","1","1","1","0","0","1","0","1","1","2","1","0","0","2","0","1","1","0","1","1","1","0","2","1","1","0","0","0","1","0","0","1","3","4","0","1","1","4","1","1","4","4","4","0","2","4","4","4","3","3","605.2999999523163","","w","","true","0","12","up","down","1","w","1","0","1658158279294","","","false","60","12","0.15","0.25","false"
"","html-keyboard-response","109","272089","0.0-6.0-1.13-0.13","001","20","F","1658158007027","q","q","Only if I get the answer right","You win money","A fixed time limit","5","F","Switching between left and right hand because one hand can get tired easily (not sure whether it works though)","The angle of the keyboard makes my wrist sore...","2","1","1","0","1","1","1","3","1","0","1","2","1","1","1","1","0","0","1","0","1","1","2","1","0","0","2","0","1","1","0","1","1","1","0","2","1","1","0","0","0","1","0","0","1","3","4","0","1","1","4","1","1","4","4","4","0","2","4","4","4","3","3","565.1000000238419","<div style=""color:green; font-size:75px;""><b>$0.25</b></div><br><br><br><br><table><tr><td><img src=static/images/oddball_down.png></td><td><img src=static/images/oddball_up.png></td><td><img src=static/images/oddball_up.png></td></tr></table>","81","1","","","","","","","","","","","","","","","","","",""
"","html-keyboard-response","110","272091","0.0-6.0-1.13-1.13","001","20","F","1658158007027","q","q","Only if I get the answer right","You win money","A fixed time limit","5","F","Switching between left and right hand because one hand can get tired easily (not sure whether it works though)","The angle of the keyboard makes my wrist sore...","2","1","1","0","1","1","1","3","1","0","1","2","1","1","1","1","0","0","1","0","1","1","2","1","0","0","2","0","1","1","0","1","1","1","0","2","1","1","0","0","0","1","0","0","1","3","4","0","1","1","4","1","1","4","4","4","0","2","4","4","4","3","3","565.1000000238419","","q","","true","0","13","up","down","0","q","1","0","1658158279862","","","false","60","13","0.16666666666666666","0.25","false"
"","html-keyboard-response","111","272689","0.0-6.0-1.14-0.14","001","20","F","1658158007027","q","q","Only if I get the answer right","You win money","A fixed time limit","5","F","Switching between left and right hand because one hand can get tired easily (not sure whether it works though)","The angle of the keyboard makes my wrist sore...","2","1","1","0","1","1","1","3","1","0","1","2","1","1","1","1","0","0","1","0","1","1","2","1","0","0","2","0","1","1","0","1","1","1","0","2","1","1","0","0","0","1","0","0","1","3","4","0","1","1","4","1","1","4","4","4","0","2","4","4","4","3","3","597.1000000238419","<div style=""color:green; font-size:75px;""><b>$0.25</b></div><br><br><br><br><table><tr><td><img src=static/images/oddball_down.png></td><td><img src=static/images/oddball_down.png></td><td><img src=static/images/oddball_up.png></td></tr></table>","69","1","","","","","","","","","","","","","","","","","",""
"","html-keyboard-response","112","272691","0.0-6.0-1.14-1.14","001","20","F","1658158007027","q","q","Only if I get the answer right","You win money","A fixed time limit","5","F","Switching between left and right hand because one hand can get tired easily (not sure whether it works though)","The angle of the keyboard makes my wrist sore...","2","1","1","0","1","1","1","3","1","0","1","2","1","1","1","1","0","0","1","0","1","1","2","1","0","0","2","0","1","1","0","1","1","1","0","2","1","1","0","0","0","1","0","0","1","3","4","0","1","1","4","1","1","4","4","4","0","2","4","4","4","3","3","597.1000000238419","","e","","true","0","14","down","up","2","e","1","0","1658158280462","","","false","60","14","0.18333333333333332","0.25","false"
"","html-keyboard-response","113","273265","0.0-6.0-1.15-0.15","001","20","F","1658158007027","q","q","Only if I get the answer right","You win money","A fixed time limit","5","F","Switching between left and right hand because one hand can get tired easily (not sure whether it works though)","The angle of the keyboard makes my wrist sore...","2","1","1","0","1","1","1","3","1","0","1","2","1","1","1","1","0","0","1","0","1","1","2","1","0","0","2","0","1","1","0","1","1","1","0","2","1","1","0","0","0","1","0","0","1","3","4","0","1","1","4","1","1","4","4","4","0","2","4","4","4","3","3","573.3999999761581","<div style=""color:green; font-size:75px;""><b>$0.25</b></div><br><br><br><br><table><tr><td><img src=static/images/oddball_down.png></td><td><img src=static/images/oddball_up.png></td><td><img src=static/images/oddball_down.png></td></tr></table>","87","1","","","","","","","","","","","","","","","","","",""
"","html-keyboard-response","114","273268","0.0-6.0-1.15-1.15","001","20","F","1658158007027","q","q","Only if I get the answer right","You win money","A fixed time limit","5","F","Switching between left and right hand because one hand can get tired easily (not sure whether it works though)","The angle of the keyboard makes my wrist sore...","2","1","1","0","1","1","1","3","1","0","1","2","1","1","1","1","0","0","1","0","1","1","2","1","0","0","2","0","1","1","0","1","1","1","0","2","1","1","0","0","0","1","0","0","1","3","4","0","1","1","4","1","1","4","4","4","0","2","4","4","4","3","3","573.3999999761581","","w","","true","0","15","down","up","1","w","1","0","1658158281039","","","false","60","15","0.2","0.25","false"
"","html-keyboard-response","115","273825","0.0-6.0-1.16-0.16","001","20","F","1658158007027","q","q","Only if I get the answer right","You win money","A fixed time limit","5","F","Switching between left and right hand because one hand can get tired easily (not sure whether it works though)","The angle of the keyboard makes my wrist sore...","2","1","1","0","1","1","1","3","1","0","1","2","1","1","1","1","0","0","1","0","1","1","2","1","0","0","2","0","1","1","0","1","1","1","0","2","1","1","0","0","0","1","0","0","1","3","4","0","1","1","4","1","1","4","4","4","0","2","4","4","4","3","3","555.5","<div style=""color:green; font-size:75px;""><b>$0.25</b></div><br><br><br><br><table><tr><td><img src=static/images/oddball_up.png></td><td><img src=static/images/oddball_up.png></td><td><img src=static/images/oddball_down.png></td></tr></table>","69","1","","","","","","","","","","","","","","","","","",""
"","html-keyboard-response","116","273828","0.0-6.0-1.16-1.16","001","20","F","1658158007027","q","q","Only if I get the answer right","You win money","A fixed time limit","5","F","Switching between left and right hand because one hand can get tired easily (not sure whether it works though)","The angle of the keyboard makes my wrist sore...","2","1","1","0","1","1","1","3","1","0","1","2","1","1","1","1","0","0","1","0","1","1","2","1","0","0","2","0","1","1","0","1","1","1","0","2","1","1","0","0","0","1","0","0","1","3","4","0","1","1","4","1","1","4","4","4","0","2","4","4","4","3","3","555.5","","e","","true","0","16","up","down","2","e","1","0","1658158281599","","","false","60","16","0.21666666666666667","0.25","false"
"","html-keyboard-response","117","274481","0.0-6.0-1.17-0.17","001","20","F","1658158007027","q","q","Only if I get the answer right","You win money","A fixed time limit","5","F","Switching between left and right hand because one hand can get tired easily (not sure whether it works though)","The angle of the keyboard makes my wrist sore...","2","1","1","0","1","1","1","3","1","0","1","2","1","1","1","1","0","0","1","0","1","1","2","1","0","0","2","0","1","1","0","1","1","1","0","2","1","1","0","0","0","1","0","0","1","3","4","0","1","1","4","1","1","4","4","4","0","2","4","4","4","3","3","651.6999999880791","<div style=""color:green; font-size:75px;""><b>$0.25</b></div><br><br><br><br><table><tr><td><img src=static/images/oddball_down.png></td><td><img src=static/images/oddball_down.png></td><td><img src=static/images/oddball_up.png></td></tr></table>","69","1","","","","","","","","","","","","","","","","","",""
"","html-keyboard-response","118","274483","0.0-6.0-1.17-1.17","001","20","F","1658158007027","q","q","Only if I get the answer right","You win money","A fixed time limit","5","F","Switching between left and right hand because one hand can get tired easily (not sure whether it works though)","The angle of the keyboard makes my wrist sore...","2","1","1","0","1","1","1","3","1","0","1","2","1","1","1","1","0","0","1","0","1","1","2","1","0","0","2","0","1","1","0","1","1","1","0","2","1","1","0","0","0","1","0","0","1","3","4","0","1","1","4","1","1","4","4","4","0","2","4","4","4","3","3","651.6999999880791","","e","","true","0","17","down","up","2","e","1","0","1658158282254","","","false","60","17","0.23333333333333334","0.25","false"
"","html-keyboard-response","119","275041","0.0-6.0-1.18-0.18","001","20","F","1658158007027","q","q","Only if I get the answer right","You win money","A fixed time limit","5","F","Switching between left and right hand because one hand can get tired easily (not sure whether it works though)","The angle of the keyboard makes my wrist sore...","2","1","1","0","1","1","1","3","1","0","1","2","1","1","1","1","0","0","1","0","1","1","2","1","0","0","2","0","1","1","0","1","1","1","0","2","1","1","0","0","0","1","0","0","1","3","4","0","1","1","4","1","1","4","4","4","0","2","4","4","4","3","3","556.8999999761581","<div style=""color:green; font-size:75px;""><b>$0.25</b></div><br><br><br><br><table><tr><td><img src=static/images/oddball_up.png></td><td><img src=static/images/oddball_down.png></td><td><img src=static/images/oddball_down.png></td></tr></table>","81","1","","","","","","","","","","","","","","","","","",""
"","html-keyboard-response","120","275043","0.0-6.0-1.18-1.18","001","20","F","1658158007027","q","q","Only if I get the answer right","You win money","A fixed time limit","5","F","Switching between left and right hand because one hand can get tired easily (not sure whether it works though)","The angle of the keyboard makes my wrist sore...","2","1","1","0","1","1","1","3","1","0","1","2","1","1","1","1","0","0","1","0","1","1","2","1","0","0","2","0","1","1","0","1","1","1","0","2","1","1","0","0","0","1","0","0","1","3","4","0","1","1","4","1","1","4","4","4","0","2","4","4","4","3","3","556.8999999761581","","q","","true","0","18","down","up","0","q","1","0","1658158282814","","","false","60","18","0.25","0.25","false"
"","html-keyboard-response","121","275705","0.0-6.0-1.19-0.19","001","20","F","1658158007027","q","q","Only if I get the answer right","You win money","A fixed time limit","5","F","Switching between left and right hand because one hand can get tired easily (not sure whether it works though)","The angle of the keyboard makes my wrist sore...","2","1","1","0","1","1","1","3","1","0","1","2","1","1","1","1","0","0","1","0","1","1","2","1","0","0","2","0","1","1","0","1","1","1","0","2","1","1","0","0","0","1","0","0","1","3","4","0","1","1","4","1","1","4","4","4","0","2","4","4","4","3","3","660.8999999761581","<div style=""color:green; font-size:75px;""><b>$0.25</b></div><br><br><br><br><table><tr><td><img src=static/images/oddball_down.png></td><td><img src=static/images/oddball_up.png></td><td><img src=static/images/oddball_up.png></td></tr></table>","81","1","","","","","","","","","","","","","","","","","",""
"","html-keyboard-response","122","275707","0.0-6.0-1.19-1.19","001","20","F","1658158007027","q","q","Only if I get the answer right","You win money","A fixed time limit","5","F","Switching between left and right hand because one hand can get tired easily (not sure whether it works though)","The angle of the keyboard makes my wrist sore...","2","1","1","0","1","1","1","3","1","0","1","2","1","1","1","1","0","0","1","0","1","1","2","1","0","0","2","0","1","1","0","1","1","1","0","2","1","1","0","0","0","1","0","0","1","3","4","0","1","1","4","1","1","4","4","4","0","2","4","4","4","3","3","660.8999999761581","","q","","true","0","19","up","down","0","q","1","0","1658158283478","","","false","60","19","0.26666666666666666","0.25","false"
"","html-keyboard-response","123","276233","0.0-6.0-1.20-0.20","001","20","F","1658158007027","q","q","Only if I get the answer right","You win money","A fixed time limit","5","F","Switching between left and right hand because one hand can get tired easily (not sure whether it works though)","The angle of the keyboard makes my wrist sore...","2","1","1","0","1","1","1","3","1","0","1","2","1","1","1","1","0","0","1","0","1","1","2","1","0","0","2","0","1","1","0","1","1","1","0","2","1","1","0","0","0","1","0","0","1","3","4","0","1","1","4","1","1","4","4","4","0","2","4","4","4","3","3","525.1999999880791","<div style=""color:green; font-size:75px;""><b>$0.25</b></div><br><br><br><br><table><tr><td><img src=static/images/oddball_up.png></td><td><img src=static/images/oddball_up.png></td><td><img src=static/images/oddball_down.png></td></tr></table>","69","1","","","","","","","","","","","","","","","","","",""
"","html-keyboard-response","124","276235","0.0-6.0-1.20-1.20","001","20","F","1658158007027","q","q","Only if I get the answer right","You win money","A fixed time limit","5","F","Switching between left and right hand because one hand can get tired easily (not sure whether it works though)","The angle of the keyboard makes my wrist sore...","2","1","1","0","1","1","1","3","1","0","1","2","1","1","1","1","0","0","1","0","1","1","2","1","0","0","2","0","1","1","0","1","1","1","0","2","1","1","0","0","0","1","0","0","1","3","4","0","1","1","4","1","1","4","4","4","0","2","4","4","4","3","3","525.1999999880791","","e","","true","0","20","up","down","2","e","1","0","1658158284006","","","false","60","20","0.2833333333333333","0.25","false"
"","html-keyboard-response","125","276785","0.0-6.0-1.21-0.21","001","20","F","1658158007027","q","q","Only if I get the answer right","You win money","A fixed time limit","5","F","Switching between left and right hand because one hand can get tired easily (not sure whether it works though)","The angle of the keyboard makes my wrist sore...","2","1","1","0","1","1","1","3","1","0","1","2","1","1","1","1","0","0","1","0","1","1","2","1","0","0","2","0","1","1","0","1","1","1","0","2","1","1","0","0","0","1","0","0","1","3","4","0","1","1","4","1","1","4","4","4","0","2","4","4","4","3","3","549","<div style=""color:green; font-size:75px;""><b>$0.25</b></div><br><br><br><br><table><tr><td><img src=static/images/oddball_up.png></td><td><img src=static/images/oddball_down.png></td><td><img src=static/images/oddball_up.png></td></tr></table>","87","1","","","","","","","","","","","","","","","","","",""
"","html-keyboard-response","126","276787","0.0-6.0-1.21-1.21","001","20","F","1658158007027","q","q","Only if I get the answer right","You win money","A fixed time limit","5","F","Switching between left and right hand because one hand can get tired easily (not sure whether it works though)","The angle of the keyboard makes my wrist sore...","2","1","1","0","1","1","1","3","1","0","1","2","1","1","1","1","0","0","1","0","1","1","2","1","0","0","2","0","1","1","0","1","1","1","0","2","1","1","0","0","0","1","0","0","1","3","4","0","1","1","4","1","1","4","4","4","0","2","4","4","4","3","3","549","","w","","true","0","21","up","down","1","w","1","0","1658158284558","","","false","60","21","0.3","0.25","false"
