"success","trial_type","trial_index","time_elapsed","internal_node_id","subject","age","sex","date","instQ1","instQ2","instQ3","instQ4","instQ5","totalInstQ","gender","strategy","comments","DASS1_s","DASS2_a","DASS3_d","DASS4_a","DASS5_d","DASS6_s","DASS7_a","DASS8_s","DASS9_a","DASS10_d","DASS11_s","DASS12_s","DASS13_d","DASS14_s","DASS15_a","DASS16_d","DASS17_d","DASS18_s","DASS19_a","DASS20_a","DASS21_d","BB1","BB2","BB3","BB4","BB5","BB6","BB7","BB8","BB9","BB10","BB11","BB12","BB13","BB14","BB15","BB16","BB17","BB18","BB19","BB20","BB21","BB22","BB23","BB24","NFC1","NFC2","NFC3","NFC4","NFC5","NFC6","NFC7","NFC8","NFC9","NFC10","NFC11","NFC12","NFC13","NFC14","NFC15","NFC16","NFC17","NFC18","rt","stimulus","key_press","npress","isDataTrial","block","trialinblock","common","odd","oddidx","correct_ans","accuracy","totalTokens","timestamp","responses","question_order","showprog","blocklen","trial","progress","reward","timedout"
"true","fullscreen","0","9260","0.0-0.0","014 ","37","f","1658956570934","q","q","Only if I get the answer right","Nothing","A fixed time limit","4","female","No","Much faster/harder than expected!","3","1","0","1","1","0","0","1","0","0","1","1","0","0","0","0","1","0","1","0","0","3","2","1","1","0","1","0","0","1","0","1","0","0","0","2","1","0","0","1","0","1","0","0","1","3","3","0","0","0","4","0","0","4","4","4","0","3","4","4","4","0","4","","","","","","","","","","","","","","","","","","","","","",""
"","image-keyboard-response","1","18241","0.0-1.0-0.0","014 ","37","f","1658956570934","q","q","Only if I get the answer right","Nothing","A fixed time limit","4","female","No","Much faster/harder than expected!","3","1","0","1","1","0","0","1","0","0","1","1","0","0","0","0","1","0","1","0","0","3","2","1","1","0","1","0","0","1","0","1","0","0","0","2","1","0","0","1","0","1","0","0","1","3","3","0","0","0","4","0","0","4","4","4","0","3","4","4","4","0","4","8979.899999976158","static/images/instructions/Slide1.png","39","","","","","","","","","","","","","","","","","","",""
"","image-keyboard-response","2","40341","0.0-1.1-0.1","014 ","37","f","1658956570934","q","q","Only if I get the answer right","Nothing","A fixed time limit","4","female","No","Much faster/harder than expected!","3","1","0","1","1","0","0","1","0","0","1","1","0","0","0","0","1","0","1","0","0","3","2","1","1","0","1","0","0","1","0","1","0","0","0","2","1","0","0","1","0","1","0","0","1","3","3","0","0","0","4","0","0","4","4","4","0","3","4","4","4","0","4","22099","static/images/instructions/Slide2.png","39","","","","","","","","","","","","","","","","","","",""
"","image-keyboard-response","3","44613","0.0-1.2-0.2","014 ","37","f","1658956570934","q","q","Only if I get the answer right","Nothing","A fixed time limit","4","female","No","Much faster/harder than expected!","3","1","0","1","1","0","0","1","0","0","1","1","0","0","0","0","1","0","1","0","0","3","2","1","1","0","1","0","0","1","0","1","0","0","0","2","1","0","0","1","0","1","0","0","1","3","3","0","0","0","4","0","0","4","4","4","0","3","4","4","4","0","4","4271","static/images/instructions/Slide3.png","39","","","","","","","","","","","","","","","","","","",""
"","image-keyboard-response","4","49765","0.0-1.3-0.3","014 ","37","f","1658956570934","q","q","Only if I get the answer right","Nothing","A fixed time limit","4","female","No","Much faster/harder than expected!","3","1","0","1","1","0","0","1","0","0","1","1","0","0","0","0","1","0","1","0","0","3","2","1","1","0","1","0","0","1","0","1","0","0","0","2","1","0","0","1","0","1","0","0","1","3","3","0","0","0","4","0","0","4","4","4","0","3","4","4","4","0","4","5151.300000011921","static/images/instructions/Slide4.png","39","","","","","","","","","","","","","","","","","","",""
"","image-keyboard-response","5","54524","0.0-1.4-0.4","014 ","37","f","1658956570934","q","q","Only if I get the answer right","Nothing","A fixed time limit","4","female","No","Much faster/harder than expected!","3","1","0","1","1","0","0","1","0","0","1","1","0","0","0","0","1","0","1","0","0","3","2","1","1","0","1","0","0","1","0","1","0","0","0","2","1","0","0","1","0","1","0","0","1","3","3","0","0","0","4","0","0","4","4","4","0","3","4","4","4","0","4","4751.100000023842","static/images/instructions/Slide5.png","39","","","","","","","","","","","","","","","","","","",""
"","image-keyboard-response","6","59788","0.0-1.5-0.5","014 ","37","f","1658956570934","q","q","Only if I get the answer right","Nothing","A fixed time limit","4","female","No","Much faster/harder than expected!","3","1","0","1","1","0","0","1","0","0","1","1","0","0","0","0","1","0","1","0","0","3","2","1","1","0","1","0","0","1","0","1","0","0","0","2","1","0","0","1","0","1","0","0","1","3","3","0","0","0","4","0","0","4","4","4","0","3","4","4","4","0","4","5263.199999988079","static/images/instructions/Slide6.png","39","","","","","","","","","","","","","","","","","","",""
"","image-keyboard-response","7","81180","0.0-1.6-0.6","014 ","37","f","1658956570934","q","q","Only if I get the answer right","Nothing","A fixed time limit","4","female","No","Much faster/harder than expected!","3","1","0","1","1","0","0","1","0","0","1","1","0","0","0","0","1","0","1","0","0","3","2","1","1","0","1","0","0","1","0","1","0","0","0","2","1","0","0","1","0","1","0","0","1","3","3","0","0","0","4","0","0","4","4","4","0","3","4","4","4","0","4","21391.899999976158","static/images/instructions/Slide7.png","39","","","","","","","","","","","","","","","","","","",""
"","html-keyboard-response","8","82932","0.0-2.0-0.0","014 ","37","f","1658956570934","q","q","Only if I get the answer right","Nothing","A fixed time limit","4","female","No","Much faster/harder than expected!","3","1","0","1","1","0","0","1","0","0","1","1","0","0","0","0","1","0","1","0","0","3","2","1","1","0","1","0","0","1","0","1","0","0","0","2","1","0","0","1","0","1","0","0","1","3","3","0","0","0","4","0","0","4","4","4","0","3","4","4","4","0","4","1750.4000000357628","<br><br><br><br><table><tr><td><img src=static/images/oddball_down.png></td><td><img src=static/images/oddball_down.png></td><td><img src=static/images/oddball_up.png></td></tr></table>","69","1","","","","","","","","","","","","","","","","","",""
"","html-keyboard-response","9","85437","0.0-2.0-1.0","014 ","37","f","1658956570934","q","q","Only if I get the answer right","Nothing","A fixed time limit","4","female","No","Much faster/harder than expected!","3","1","0","1","1","0","0","1","0","0","1","1","0","0","0","0","1","0","1","0","0","3","2","1","1","0","1","0","0","1","0","1","0","0","0","2","1","0","0","1","0","1","0","0","1","3","3","0","0","0","4","0","0","4","4","4","0","3","4","4","4","0","4","null","<div style=""font-size:75px;""><b>Correct</b></div>","null","","","","","","","","","","","","","","","","","","",""
"","html-keyboard-response","10","86442","0.0-2.0-2.0","014 ","37","f","1658956570934","q","q","Only if I get the answer right","Nothing","A fixed time limit","4","female","No","Much faster/harder than expected!","3","1","0","1","1","0","0","1","0","0","1","1","0","0","0","0","1","0","1","0","0","3","2","1","1","0","1","0","0","1","0","1","0","0","0","2","1","0","0","1","0","1","0","0","1","3","3","0","0","0","4","0","0","4","4","4","0","3","4","4","4","0","4","1750.4000000357628","","e","","true","practice","0","down","up","2","e","1","0","1658956657979","","","","","","","",""
"","html-keyboard-response","11","87116","0.0-2.1-0.1","014 ","37","f","1658956570934","q","q","Only if I get the answer right","Nothing","A fixed time limit","4","female","No","Much faster/harder than expected!","3","1","0","1","1","0","0","1","0","0","1","1","0","0","0","0","1","0","1","0","0","3","2","1","1","0","1","0","0","1","0","1","0","0","0","2","1","0","0","1","0","1","0","0","1","3","3","0","0","0","4","0","0","4","4","4","0","3","4","4","4","0","4","673.1999999880791","<br><br><br><br><table><tr><td><img src=static/images/oddball_up.png></td><td><img src=static/images/oddball_up.png></td><td><img src=static/images/oddball_down.png></td></tr></table>","69","1","","","","","","","","","","","","","","","","","",""
"","html-keyboard-response","12","89624","0.0-2.1-1.1","014 ","37","f","1658956570934","q","q","Only if I get the answer right","Nothing","A fixed time limit","4","female","No","Much faster/harder than expected!","3","1","0","1","1","0","0","1","0","0","1","1","0","0","0","0","1","0","1","0","0","3","2","1","1","0","1","0","0","1","0","1","0","0","0","2","1","0","0","1","0","1","0","0","1","3","3","0","0","0","4","0","0","4","4","4","0","3","4","4","4","0","4","null","<div style=""font-size:75px;""><b>Correct</b></div>","null","","","","","","","","","","","","","","","","","","",""
"","html-keyboard-response","13","90630","0.0-2.1-2.1","014 ","37","f","1658956570934","q","q","Only if I get the answer right","Nothing","A fixed time limit","4","female","No","Much faster/harder than expected!","3","1","0","1","1","0","0","1","0","0","1","1","0","0","0","0","1","0","1","0","0","3","2","1","1","0","1","0","0","1","0","1","0","0","0","2","1","0","0","1","0","1","0","0","1","3","3","0","0","0","4","0","0","4","4","4","0","3","4","4","4","0","4","673.1999999880791","","e","","true","practice","1","up","down","2","e","1","0","1658956662167","","","","","","","",""
"","html-keyboard-response","14","91252","0.0-2.2-0.2","014 ","37","f","1658956570934","q","q","Only if I get the answer right","Nothing","A fixed time limit","4","female","No","Much faster/harder than expected!","3","1","0","1","1","0","0","1","0","0","1","1","0","0","0","0","1","0","1","0","0","3","2","1","1","0","1","0","0","1","0","1","0","0","0","2","1","0","0","1","0","1","0","0","1","3","3","0","0","0","4","0","0","4","4","4","0","3","4","4","4","0","4","621.5","<br><br><br><br><table><tr><td><img src=static/images/oddball_up.png></td><td><img src=static/images/oddball_down.png></td><td><img src=static/images/oddball_down.png></td></tr></table>","81","1","","","","","","","","","","","","","","","","","",""
"","html-keyboard-response","15","93764","0.0-2.2-1.2","014 ","37","f","1658956570934","q","q","Only if I get the answer right","Nothing","A fixed time limit","4","female","No","Much faster/harder than expected!","3","1","0","1","1","0","0","1","0","0","1","1","0","0","0","0","1","0","1","0","0","3","2","1","1","0","1","0","0","1","0","1","0","0","0","2","1","0","0","1","0","1","0","0","1","3","3","0","0","0","4","0","0","4","4","4","0","3","4","4","4","0","4","null","<div style=""font-size:75px;""><b>Correct</b></div>","null","","","","","","","","","","","","","","","","","","",""
"","html-keyboard-response","16","94769","0.0-2.2-2.2","014 ","37","f","1658956570934","q","q","Only if I get the answer right","Nothing","A fixed time limit","4","female","No","Much faster/harder than expected!","3","1","0","1","1","0","0","1","0","0","1","1","0","0","0","0","1","0","1","0","0","3","2","1","1","0","1","0","0","1","0","1","0","0","0","2","1","0","0","1","0","1","0","0","1","3","3","0","0","0","4","0","0","4","4","4","0","3","4","4","4","0","4","621.5","","q","","true","practice","2","down","up","0","q","1","0","1658956666306","","","","","","","",""
"","html-keyboard-response","17","95348","0.0-2.3-0.3","014 ","37","f","1658956570934","q","q","Only if I get the answer right","Nothing","A fixed time limit","4","female","No","Much faster/harder than expected!","3","1","0","1","1","0","0","1","0","0","1","1","0","0","0","0","1","0","1","0","0","3","2","1","1","0","1","0","0","1","0","1","0","0","0","2","1","0","0","1","0","1","0","0","1","3","3","0","0","0","4","0","0","4","4","4","0","3","4","4","4","0","4","577.8000000119209","<br><br><br><br><table><tr><td><img src=static/images/oddball_down.png></td><td><img src=static/images/oddball_up.png></td><td><img src=static/images/oddball_down.png></td></tr></table>","87","1","","","","","","","","","","","","","","","","","",""
"","html-keyboard-response","18","97856","0.0-2.3-1.3","014 ","37","f","1658956570934","q","q","Only if I get the answer right","Nothing","A fixed time limit","4","female","No","Much faster/harder than expected!","3","1","0","1","1","0","0","1","0","0","1","1","0","0","0","0","1","0","1","0","0","3","2","1","1","0","1","0","0","1","0","1","0","0","0","2","1","0","0","1","0","1","0","0","1","3","3","0","0","0","4","0","0","4","4","4","0","3","4","4","4","0","4","null","<div style=""font-size:75px;""><b>Correct</b></div>","null","","","","","","","","","","","","","","","","","","",""
"","html-keyboard-response","19","98863","0.0-2.3-2.3","014 ","37","f","1658956570934","q","q","Only if I get the answer right","Nothing","A fixed time limit","4","female","No","Much faster/harder than expected!","3","1","0","1","1","0","0","1","0","0","1","1","0","0","0","0","1","0","1","0","0","3","2","1","1","0","1","0","0","1","0","1","0","0","0","2","1","0","0","1","0","1","0","0","1","3","3","0","0","0","4","0","0","4","4","4","0","3","4","4","4","0","4","577.8000000119209","","w","","true","practice","3","down","up","1","w","1","0","1658956670400","","","","","","","",""
"","html-keyboard-response","20","99652","0.0-2.4-0.4","014 ","37","f","1658956570934","q","q","Only if I get the answer right","Nothing","A fixed time limit","4","female","No","Much faster/harder than expected!","3","1","0","1","1","0","0","1","0","0","1","1","0","0","0","0","1","0","1","0","0","3","2","1","1","0","1","0","0","1","0","1","0","0","0","2","1","0","0","1","0","1","0","0","1","3","3","0","0","0","4","0","0","4","4","4","0","3","4","4","4","0","4","788.0999999642372","<br><br><br><br><table><tr><td><img src=static/images/oddball_down.png></td><td><img src=static/images/oddball_up.png></td><td><img src=static/images/oddball_up.png></td></tr></table>","81","1","","","","","","","","","","","","","","","","","",""
"","html-keyboard-response","21","102163","0.0-2.4-1.4","014 ","37","f","1658956570934","q","q","Only if I get the answer right","Nothing","A fixed time limit","4","female","No","Much faster/harder than expected!","3","1","0","1","1","0","0","1","0","0","1","1","0","0","0","0","1","0","1","0","0","3","2","1","1","0","1","0","0","1","0","1","0","0","0","2","1","0","0","1","0","1","0","0","1","3","3","0","0","0","4","0","0","4","4","4","0","3","4","4","4","0","4","null","<div style=""font-size:75px;""><b>Correct</b></div>","null","","","","","","","","","","","","","","","","","","",""
"","html-keyboard-response","22","103170","0.0-2.4-2.4","014 ","37","f","1658956570934","q","q","Only if I get the answer right","Nothing","A fixed time limit","4","female","No","Much faster/harder than expected!","3","1","0","1","1","0","0","1","0","0","1","1","0","0","0","0","1","0","1","0","0","3","2","1","1","0","1","0","0","1","0","1","0","0","0","2","1","0","0","1","0","1","0","0","1","3","3","0","0","0","4","0","0","4","4","4","0","3","4","4","4","0","4","788.0999999642372","","q","","true","practice","4","up","down","0","q","1","0","1658956674707","","","","","","","",""
"","html-keyboard-response","23","103836","0.0-2.5-0.5","014 ","37","f","1658956570934","q","q","Only if I get the answer right","Nothing","A fixed time limit","4","female","No","Much faster/harder than expected!","3","1","0","1","1","0","0","1","0","0","1","1","0","0","0","0","1","0","1","0","0","3","2","1","1","0","1","0","0","1","0","1","0","0","0","2","1","0","0","1","0","1","0","0","1","3","3","0","0","0","4","0","0","4","4","4","0","3","4","4","4","0","4","665.1999999880791","<br><br><br><br><table><tr><td><img src=static/images/oddball_down.png></td><td><img src=static/images/oddball_down.png></td><td><img src=static/images/oddball_up.png></td></tr></table>","69","1","","","","","","","","","","","","","","","","","",""
"","html-keyboard-response","24","106340","0.0-2.5-1.5","014 ","37","f","1658956570934","q","q","Only if I get the answer right","Nothing","A fixed time limit","4","female","No","Much faster/harder than expected!","3","1","0","1","1","0","0","1","0","0","1","1","0","0","0","0","1","0","1","0","0","3","2","1","1","0","1","0","0","1","0","1","0","0","0","2","1","0","0","1","0","1","0","0","1","3","3","0","0","0","4","0","0","4","4","4","0","3","4","4","4","0","4","null","<div style=""font-size:75px;""><b>Correct</b></div>","null","","","","","","","","","","","","","","","","","","",""
"","html-keyboard-response","25","107346","0.0-2.5-2.5","014 ","37","f","1658956570934","q","q","Only if I get the answer right","Nothing","A fixed time limit","4","female","No","Much faster/harder than expected!","3","1","0","1","1","0","0","1","0","0","1","1","0","0","0","0","1","0","1","0","0","3","2","1","1","0","1","0","0","1","0","1","0","0","0","2","1","0","0","1","0","1","0","0","1","3","3","0","0","0","4","0","0","4","4","4","0","3","4","4","4","0","4","665.1999999880791","","e","","true","practice","5","down","up","2","e","1","0","1658956678883","","","","","","","",""
"","html-keyboard-response","26","108020","0.0-2.6-0.6","014 ","37","f","1658956570934","q","q","Only if I get the answer right","Nothing","A fixed time limit","4","female","No","Much faster/harder than expected!","3","1","0","1","1","0","0","1","0","0","1","1","0","0","0","0","1","0","1","0","0","3","2","1","1","0","1","0","0","1","0","1","0","0","0","2","1","0","0","1","0","1","0","0","1","3","3","0","0","0","4","0","0","4","4","4","0","3","4","4","4","0","4","673.5","<br><br><br><br><table><tr><td><img src=static/images/oddball_down.png></td><td><img src=static/images/oddball_up.png></td><td><img src=static/images/oddball_up.png></td></tr></table>","81","1","","","","","","","","","","","","","","","","","",""
"","html-keyboard-response","27","110530","0.0-2.6-1.6","014 ","37","f","1658956570934","q","q","Only if I get the answer right","Nothing","A fixed time limit","4","female","No","Much faster/harder than expected!","3","1","0","1","1","0","0","1","0","0","1","1","0","0","0","0","1","0","1","0","0","3","2","1","1","0","1","0","0","1","0","1","0","0","0","2","1","0","0","1","0","1","0","0","1","3","3","0","0","0","4","0","0","4","4","4","0","3","4","4","4","0","4","null","<div style=""font-size:75px;""><b>Correct</b></div>","null","","","","","","","","","","","","","","","","","","",""
"","html-keyboard-response","28","111536","0.0-2.6-2.6","014 ","37","f","1658956570934","q","q","Only if I get the answer right","Nothing","A fixed time limit","4","female","No","Much faster/harder than expected!","3","1","0","1","1","0","0","1","0","0","1","1","0","0","0","0","1","0","1","0","0","3","2","1","1","0","1","0","0","1","0","1","0","0","0","2","1","0","0","1","0","1","0","0","1","3","3","0","0","0","4","0","0","4","4","4","0","3","4","4","4","0","4","673.5","","q","","true","practice","6","up","down","0","q","1","0","1658956683073","","","","","","","",""
"","html-keyboard-response","29","112476","0.0-2.7-0.7","014 ","37","f","1658956570934","q","q","Only if I get the answer right","Nothing","A fixed time limit","4","female","No","Much faster/harder than expected!","3","1","0","1","1","0","0","1","0","0","1","1","0","0","0","0","1","0","1","0","0","3","2","1","1","0","1","0","0","1","0","1","0","0","0","2","1","0","0","1","0","1","0","0","1","3","3","0","0","0","4","0","0","4","4","4","0","3","4","4","4","0","4","939.1000000238419","<br><br><br><br><table><tr><td><img src=static/images/oddball_down.png></td><td><img src=static/images/oddball_up.png></td><td><img src=static/images/oddball_down.png></td></tr></table>","87","1","","","","","","","","","","","","","","","","","",""
"","html-keyboard-response","30","114996","0.0-2.7-1.7","014 ","37","f","1658956570934","q","q","Only if I get the answer right","Nothing","A fixed time limit","4","female","No","Much faster/harder than expected!","3","1","0","1","1","0","0","1","0","0","1","1","0","0","0","0","1","0","1","0","0","3","2","1","1","0","1","0","0","1","0","1","0","0","0","2","1","0","0","1","0","1","0","0","1","3","3","0","0","0","4","0","0","4","4","4","0","3","4","4","4","0","4","null","<div style=""font-size:75px;""><b>Correct</b></div>","null","","","","","","","","","","","","","","","","","","",""
"","html-keyboard-response","31","116003","0.0-2.7-2.7","014 ","37","f","1658956570934","q","q","Only if I get the answer right","Nothing","A fixed time limit","4","female","No","Much faster/harder than expected!","3","1","0","1","1","0","0","1","0","0","1","1","0","0","0","0","1","0","1","0","0","3","2","1","1","0","1","0","0","1","0","1","0","0","0","2","1","0","0","1","0","1","0","0","1","3","3","0","0","0","4","0","0","4","4","4","0","3","4","4","4","0","4","939.1000000238419","","w","","true","practice","7","down","up","1","w","1","0","1658956687540","","","","","","","",""
"","html-keyboard-response","32","116731","0.0-2.8-0.8","014 ","37","f","1658956570934","q","q","Only if I get the answer right","Nothing","A fixed time limit","4","female","No","Much faster/harder than expected!","3","1","0","1","1","0","0","1","0","0","1","1","0","0","0","0","1","0","1","0","0","3","2","1","1","0","1","0","0","1","0","1","0","0","0","2","1","0","0","1","0","1","0","0","1","3","3","0","0","0","4","0","0","4","4","4","0","3","4","4","4","0","4","727.7000000476837","<br><br><br><br><table><tr><td><img src=static/images/oddball_down.png></td><td><img src=static/images/oddball_up.png></td><td><img src=static/images/oddball_up.png></td></tr></table>","81","1","","","","","","","","","","","","","","","","","",""
"","html-keyboard-response","33","119237","0.0-2.8-1.8","014 ","37","f","1658956570934","q","q","Only if I get the answer right","Nothing","A fixed time limit","4","female","No","Much faster/harder than expected!","3","1","0","1","1","0","0","1","0","0","1","1","0","0","0","0","1","0","1","0","0","3","2","1","1","0","1","0","0","1","0","1","0","0","0","2","1","0","0","1","0","1","0","0","1","3","3","0","0","0","4","0","0","4","4","4","0","3","4","4","4","0","4","null","<div style=""font-size:75px;""><b>Correct</b></div>","null","","","","","","","","","","","","","","","","","","",""
"","html-keyboard-response","34","120243","0.0-2.8-2.8","014 ","37","f","1658956570934","q","q","Only if I get the answer right","Nothing","A fixed time limit","4","female","No","Much faster/harder than expected!","3","1","0","1","1","0","0","1","0","0","1","1","0","0","0","0","1","0","1","0","0","3","2","1","1","0","1","0","0","1","0","1","0","0","0","2","1","0","0","1","0","1","0","0","1","3","3","0","0","0","4","0","0","4","4","4","0","3","4","4","4","0","4","727.7000000476837","","q","","true","practice","8","up","down","0","q","1","0","1658956691780","","","","","","","",""
"","html-keyboard-response","35","121115","0.0-2.9-0.9","014 ","37","f","1658956570934","q","q","Only if I get the answer right","Nothing","A fixed time limit","4","female","No","Much faster/harder than expected!","3","1","0","1","1","0","0","1","0","0","1","1","0","0","0","0","1","0","1","0","0","3","2","1","1","0","1","0","0","1","0","1","0","0","0","2","1","0","0","1","0","1","0","0","1","3","3","0","0","0","4","0","0","4","4","4","0","3","4","4","4","0","4","871.4000000357628","<br><br><br><br><table><tr><td><img src=static/images/oddball_down.png></td><td><img src=static/images/oddball_up.png></td><td><img src=static/images/oddball_down.png></td></tr></table>","87","1","","","","","","","","","","","","","","","","","",""
"","html-keyboard-response","36","123628","0.0-2.9-1.9","014 ","37","f","1658956570934","q","q","Only if I get the answer right","Nothing","A fixed time limit","4","female","No","Much faster/harder than expected!","3","1","0","1","1","0","0","1","0","0","1","1","0","0","0","0","1","0","1","0","0","3","2","1","1","0","1","0","0","1","0","1","0","0","0","2","1","0","0","1","0","1","0","0","1","3","3","0","0","0","4","0","0","4","4","4","0","3","4","4","4","0","4","null","<div style=""font-size:75px;""><b>Correct</b></div>","null","","","","","","","","","","","","","","","","","","",""
"","html-keyboard-response","37","124634","0.0-2.9-2.9","014 ","37","f","1658956570934","q","q","Only if I get the answer right","Nothing","A fixed time limit","4","female","No","Much faster/harder than expected!","3","1","0","1","1","0","0","1","0","0","1","1","0","0","0","0","1","0","1","0","0","3","2","1","1","0","1","0","0","1","0","1","0","0","0","2","1","0","0","1","0","1","0","0","1","3","3","0","0","0","4","0","0","4","4","4","0","3","4","4","4","0","4","871.4000000357628","","w","","true","practice","9","down","up","1","w","1","0","1658956696171","","","","","","","",""
"","html-keyboard-response","38","125339","0.0-2.10-0.10","014 ","37","f","1658956570934","q","q","Only if I get the answer right","Nothing","A fixed time limit","4","female","No","Much faster/harder than expected!","3","1","0","1","1","0","0","1","0","0","1","1","0","0","0","0","1","0","1","0","0","3","2","1","1","0","1","0","0","1","0","1","0","0","0","2","1","0","0","1","0","1","0","0","1","3","3","0","0","0","4","0","0","4","4","4","0","3","4","4","4","0","4","703.8999999761581","<br><br><br><br><table><tr><td><img src=static/images/oddball_down.png></td><td><img src=static/images/oddball_up.png></td><td><img src=static/images/oddball_down.png></td></tr></table>","87","1","","","","","","","","","","","","","","","","","",""
"","html-keyboard-response","39","127851","0.0-2.10-1.10","014 ","37","f","1658956570934","q","q","Only if I get the answer right","Nothing","A fixed time limit","4","female","No","Much faster/harder than expected!","3","1","0","1","1","0","0","1","0","0","1","1","0","0","0","0","1","0","1","0","0","3","2","1","1","0","1","0","0","1","0","1","0","0","0","2","1","0","0","1","0","1","0","0","1","3","3","0","0","0","4","0","0","4","4","4","0","3","4","4","4","0","4","null","<div style=""font-size:75px;""><b>Correct</b></div>","null","","","","","","","","","","","","","","","","","","",""
"","html-keyboard-response","40","128859","0.0-2.10-2.10","014 ","37","f","1658956570934","q","q","Only if I get the answer right","Nothing","A fixed time limit","4","female","No","Much faster/harder than expected!","3","1","0","1","1","0","0","1","0","0","1","1","0","0","0","0","1","0","1","0","0","3","2","1","1","0","1","0","0","1","0","1","0","0","0","2","1","0","0","1","0","1","0","0","1","3","3","0","0","0","4","0","0","4","4","4","0","3","4","4","4","0","4","703.8999999761581","","w","","true","practice","10","down","up","1","w","1","0","1658956700396","","","","","","","",""
"","html-keyboard-response","41","129475","0.0-2.11-0.11","014 ","37","f","1658956570934","q","q","Only if I get the answer right","Nothing","A fixed time limit","4","female","No","Much faster/harder than expected!","3","1","0","1","1","0","0","1","0","0","1","1","0","0","0","0","1","0","1","0","0","3","2","1","1","0","1","0","0","1","0","1","0","0","0","2","1","0","0","1","0","1","0","0","1","3","3","0","0","0","4","0","0","4","4","4","0","3","4","4","4","0","4","615.6999999880791","<br><br><br><br><table><tr><td><img src=static/images/oddball_up.png></td><td><img src=static/images/oddball_down.png></td><td><img src=static/images/oddball_up.png></td></tr></table>","87","1","","","","","","","","","","","","","","","","","",""
"","html-keyboard-response","42","131978","0.0-2.11-1.11","014 ","37","f","1658956570934","q","q","Only if I get the answer right","Nothing","A fixed time limit","4","female","No","Much faster/harder than expected!","3","1","0","1","1","0","0","1","0","0","1","1","0","0","0","0","1","0","1","0","0","3","2","1","1","0","1","0","0","1","0","1","0","0","0","2","1","0","0","1","0","1","0","0","1","3","3","0","0","0","4","0","0","4","4","4","0","3","4","4","4","0","4","null","<div style=""font-size:75px;""><b>Correct</b></div>","null","","","","","","","","","","","","","","","","","","",""
"","html-keyboard-response","43","132986","0.0-2.11-2.11","014 ","37","f","1658956570934","q","q","Only if I get the answer right","Nothing","A fixed time limit","4","female","No","Much faster/harder than expected!","3","1","0","1","1","0","0","1","0","0","1","1","0","0","0","0","1","0","1","0","0","3","2","1","1","0","1","0","0","1","0","1","0","0","0","2","1","0","0","1","0","1","0","0","1","3","3","0","0","0","4","0","0","4","4","4","0","3","4","4","4","0","4","615.6999999880791","","w","","true","practice","11","up","down","1","w","1","0","1658956704523","","","","","","","",""
"","html-keyboard-response","44","133915","0.0-2.12-0.12","014 ","37","f","1658956570934","q","q","Only if I get the answer right","Nothing","A fixed time limit","4","female","No","Much faster/harder than expected!","3","1","0","1","1","0","0","1","0","0","1","1","0","0","0","0","1","0","1","0","0","3","2","1","1","0","1","0","0","1","0","1","0","0","0","2","1","0","0","1","0","1","0","0","1","3","3","0","0","0","4","0","0","4","4","4","0","3","4","4","4","0","4","929","<br><br><br><br><table><tr><td><img src=static/images/oddball_down.png></td><td><img src=static/images/oddball_down.png></td><td><img src=static/images/oddball_up.png></td></tr></table>","69","1","","","","","","","","","","","","","","","","","",""
"","html-keyboard-response","45","136421","0.0-2.12-1.12","014 ","37","f","1658956570934","q","q","Only if I get the answer right","Nothing","A fixed time limit","4","female","No","Much faster/harder than expected!","3","1","0","1","1","0","0","1","0","0","1","1","0","0","0","0","1","0","1","0","0","3","2","1","1","0","1","0","0","1","0","1","0","0","0","2","1","0","0","1","0","1","0","0","1","3","3","0","0","0","4","0","0","4","4","4","0","3","4","4","4","0","4","null","<div style=""font-size:75px;""><b>Correct</b></div>","null","","","","","","","","","","","","","","","","","","",""
"","html-keyboard-response","46","137428","0.0-2.12-2.12","014 ","37","f","1658956570934","q","q","Only if I get the answer right","Nothing","A fixed time limit","4","female","No","Much faster/harder than expected!","3","1","0","1","1","0","0","1","0","0","1","1","0","0","0","0","1","0","1","0","0","3","2","1","1","0","1","0","0","1","0","1","0","0","0","2","1","0","0","1","0","1","0","0","1","3","3","0","0","0","4","0","0","4","4","4","0","3","4","4","4","0","4","929","","e","","true","practice","12","down","up","2","e","1","0","1658956708965","","","","","","","",""
"","html-keyboard-response","47","138027","0.0-2.13-0.13","014 ","37","f","1658956570934","q","q","Only if I get the answer right","Nothing","A fixed time limit","4","female","No","Much faster/harder than expected!","3","1","0","1","1","0","0","1","0","0","1","1","0","0","0","0","1","0","1","0","0","3","2","1","1","0","1","0","0","1","0","1","0","0","0","2","1","0","0","1","0","1","0","0","1","3","3","0","0","0","4","0","0","4","4","4","0","3","4","4","4","0","4","598.8999999761581","<br><br><br><br><table><tr><td><img src=static/images/oddball_up.png></td><td><img src=static/images/oddball_down.png></td><td><img src=static/images/oddball_up.png></td></tr></table>","87","1","","","","","","","","","","","","","","","","","",""
"","html-keyboard-response","48","140543","0.0-2.13-1.13","014 ","37","f","1658956570934","q","q","Only if I get the answer right","Nothing","A fixed time limit","4","female","No","Much faster/harder than expected!","3","1","0","1","1","0","0","1","0","0","1","1","0","0","0","0","1","0","1","0","0","3","2","1","1","0","1","0","0","1","0","1","0","0","0","2","1","0","0","1","0","1","0","0","1","3","3","0","0","0","4","0","0","4","4","4","0","3","4","4","4","0","4","null","<div style=""font-size:75px;""><b>Correct</b></div>","null","","","","","","","","","","","","","","","","","","",""
"","html-keyboard-response","49","141548","0.0-2.13-2.13","014 ","37","f","1658956570934","q","q","Only if I get the answer right","Nothing","A fixed time limit","4","female","No","Much faster/harder than expected!","3","1","0","1","1","0","0","1","0","0","1","1","0","0","0","0","1","0","1","0","0","3","2","1","1","0","1","0","0","1","0","1","0","0","0","2","1","0","0","1","0","1","0","0","1","3","3","0","0","0","4","0","0","4","4","4","0","3","4","4","4","0","4","598.8999999761581","","w","","true","practice","13","up","down","1","w","1","0","1658956713085","","","","","","","",""
"","html-keyboard-response","50","142355","0.0-2.14-0.14","014 ","37","f","1658956570934","q","q","Only if I get the answer right","Nothing","A fixed time limit","4","female","No","Much faster/harder than expected!","3","1","0","1","1","0","0","1","0","0","1","1","0","0","0","0","1","0","1","0","0","3","2","1","1","0","1","0","0","1","0","1","0","0","0","2","1","0","0","1","0","1","0","0","1","3","3","0","0","0","4","0","0","4","4","4","0","3","4","4","4","0","4","806.1000000238419","<br><br><br><br><table><tr><td><img src=static/images/oddball_down.png></td><td><img src=static/images/oddball_up.png></td><td><img src=static/images/oddball_up.png></td></tr></table>","81","1","","","","","","","","","","","","","","","","","",""
"","html-keyboard-response","51","144868","0.0-2.14-1.14","014 ","37","f","1658956570934","q","q","Only if I get the answer right","Nothing","A fixed time limit","4","female","No","Much faster/harder than expected!","3","1","0","1","1","0","0","1","0","0","1","1","0","0","0","0","1","0","1","0","0","3","2","1","1","0","1","0","0","1","0","1","0","0","0","2","1","0","0","1","0","1","0","0","1","3","3","0","0","0","4","0","0","4","4","4","0","3","4","4","4","0","4","null","<div style=""font-size:75px;""><b>Correct</b></div>","null","","","","","","","","","","","","","","","","","","",""
"","html-keyboard-response","52","145873","0.0-2.14-2.14","014 ","37","f","1658956570934","q","q","Only if I get the answer right","Nothing","A fixed time limit","4","female","No","Much faster/harder than expected!","3","1","0","1","1","0","0","1","0","0","1","1","0","0","0","0","1","0","1","0","0","3","2","1","1","0","1","0","0","1","0","1","0","0","0","2","1","0","0","1","0","1","0","0","1","3","3","0","0","0","4","0","0","4","4","4","0","3","4","4","4","0","4","806.1000000238419","","q","","true","practice","14","up","down","0","q","1","0","1658956717410","","","","","","","",""
"","html-keyboard-response","53","146475","0.0-2.15-0.15","014 ","37","f","1658956570934","q","q","Only if I get the answer right","Nothing","A fixed time limit","4","female","No","Much faster/harder than expected!","3","1","0","1","1","0","0","1","0","0","1","1","0","0","0","0","1","0","1","0","0","3","2","1","1","0","1","0","0","1","0","1","0","0","0","2","1","0","0","1","0","1","0","0","1","3","3","0","0","0","4","0","0","4","4","4","0","3","4","4","4","0","4","601.1000000238419","<br><br><br><br><table><tr><td><img src=static/images/oddball_down.png></td><td><img src=static/images/oddball_up.png></td><td><img src=static/images/oddball_down.png></td></tr></table>","87","1","","","","","","","","","","","","","","","","","",""
"","html-keyboard-response","54","148976","0.0-2.15-1.15","014 ","37","f","1658956570934","q","q","Only if I get the answer right","Nothing","A fixed time limit","4","female","No","Much faster/harder than expected!","3","1","0","1","1","0","0","1","0","0","1","1","0","0","0","0","1","0","1","0","0","3","2","1","1","0","1","0","0","1","0","1","0","0","0","2","1","0","0","1","0","1","0","0","1","3","3","0","0","0","4","0","0","4","4","4","0","3","4","4","4","0","4","null","<div style=""font-size:75px;""><b>Correct</b></div>","null","","","","","","","","","","","","","","","","","","",""
"","html-keyboard-response","55","149984","0.0-2.15-2.15","014 ","37","f","1658956570934","q","q","Only if I get the answer right","Nothing","A fixed time limit","4","female","No","Much faster/harder than expected!","3","1","0","1","1","0","0","1","0","0","1","1","0","0","0","0","1","0","1","0","0","3","2","1","1","0","1","0","0","1","0","1","0","0","0","2","1","0","0","1","0","1","0","0","1","3","3","0","0","0","4","0","0","4","4","4","0","3","4","4","4","0","4","601.1000000238419","","w","","true","practice","15","down","up","1","w","1","0","1658956721521","","","","","","","",""
"","html-keyboard-response","56","150667","0.0-2.16-0.16","014 ","37","f","1658956570934","q","q","Only if I get the answer right","Nothing","A fixed time limit","4","female","No","Much faster/harder than expected!","3","1","0","1","1","0","0","1","0","0","1","1","0","0","0","0","1","0","1","0","0","3","2","1","1","0","1","0","0","1","0","1","0","0","0","2","1","0","0","1","0","1","0","0","1","3","3","0","0","0","4","0","0","4","4","4","0","3","4","4","4","0","4","682","<br><br><br><br><table><tr><td><img src=static/images/oddball_up.png></td><td><img src=static/images/oddball_down.png></td><td><img src=static/images/oddball_up.png></td></tr></table>","87","1","","","","","","","","","","","","","","","","","",""
"","html-keyboard-response","57","153181","0.0-2.16-1.16","014 ","37","f","1658956570934","q","q","Only if I get the answer right","Nothing","A fixed time limit","4","female","No","Much faster/harder than expected!","3","1","0","1","1","0","0","1","0","0","1","1","0","0","0","0","1","0","1","0","0","3","2","1","1","0","1","0","0","1","0","1","0","0","0","2","1","0","0","1","0","1","0","0","1","3","3","0","0","0","4","0","0","4","4","4","0","3","4","4","4","0","4","null","<div style=""font-size:75px;""><b>Correct</b></div>","null","","","","","","","","","","","","","","","","","","",""
"","html-keyboard-response","58","154190","0.0-2.16-2.16","014 ","37","f","1658956570934","q","q","Only if I get the answer right","Nothing","A fixed time limit","4","female","No","Much faster/harder than expected!","3","1","0","1","1","0","0","1","0","0","1","1","0","0","0","0","1","0","1","0","0","3","2","1","1","0","1","0","0","1","0","1","0","0","0","2","1","0","0","1","0","1","0","0","1","3","3","0","0","0","4","0","0","4","4","4","0","3","4","4","4","0","4","682","","w","","true","practice","16","up","down","1","w","1","0","1658956725727","","","","","","","",""
"","html-keyboard-response","59","155003","0.0-2.17-0.17","014 ","37","f","1658956570934","q","q","Only if I get the answer right","Nothing","A fixed time limit","4","female","No","Much faster/harder than expected!","3","1","0","1","1","0","0","1","0","0","1","1","0","0","0","0","1","0","1","0","0","3","2","1","1","0","1","0","0","1","0","1","0","0","0","2","1","0","0","1","0","1","0","0","1","3","3","0","0","0","4","0","0","4","4","4","0","3","4","4","4","0","4","812.6000000238419","<br><br><br><br><table><tr><td><img src=static/images/oddball_down.png></td><td><img src=static/images/oddball_up.png></td><td><img src=static/images/oddball_up.png></td></tr></table>","81","1","","","","","","","","","","","","","","","","","",""
"","html-keyboard-response","60","157508","0.0-2.17-1.17","014 ","37","f","1658956570934","q","q","Only if I get the answer right","Nothing","A fixed time limit","4","female","No","Much faster/harder than expected!","3","1","0","1","1","0","0","1","0","0","1","1","0","0","0","0","1","0","1","0","0","3","2","1","1","0","1","0","0","1","0","1","0","0","0","2","1","0","0","1","0","1","0","0","1","3","3","0","0","0","4","0","0","4","4","4","0","3","4","4","4","0","4","null","<div style=""font-size:75px;""><b>Correct</b></div>","null","","","","","","","","","","","","","","","","","","",""
"","html-keyboard-response","61","158514","0.0-2.17-2.17","014 ","37","f","1658956570934","q","q","Only if I get the answer right","Nothing","A fixed time limit","4","female","No","Much faster/harder than expected!","3","1","0","1","1","0","0","1","0","0","1","1","0","0","0","0","1","0","1","0","0","3","2","1","1","0","1","0","0","1","0","1","0","0","0","2","1","0","0","1","0","1","0","0","1","3","3","0","0","0","4","0","0","4","4","4","0","3","4","4","4","0","4","812.6000000238419","","q","","true","practice","17","up","down","0","q","1","0","1658956730051","","","","","","","",""
"","html-keyboard-response","62","159171","0.0-2.18-0.18","014 ","37","f","1658956570934","q","q","Only if I get the answer right","Nothing","A fixed time limit","4","female","No","Much faster/harder than expected!","3","1","0","1","1","0","0","1","0","0","1","1","0","0","0","0","1","0","1","0","0","3","2","1","1","0","1","0","0","1","0","1","0","0","0","2","1","0","0","1","0","1","0","0","1","3","3","0","0","0","4","0","0","4","4","4","0","3","4","4","4","0","4","656.3000000119209","<br><br><br><br><table><tr><td><img src=static/images/oddball_up.png></td><td><img src=static/images/oddball_down.png></td><td><img src=static/images/oddball_down.png></td></tr></table>","81","1","","","","","","","","","","","","","","","","","",""
"","html-keyboard-response","63","161683","0.0-2.18-1.18","014 ","37","f","1658956570934","q","q","Only if I get the answer right","Nothing","A fixed time limit","4","female","No","Much faster/harder than expected!","3","1","0","1","1","0","0","1","0","0","1","1","0","0","0","0","1","0","1","0","0","3","2","1","1","0","1","0","0","1","0","1","0","0","0","2","1","0","0","1","0","1","0","0","1","3","3","0","0","0","4","0","0","4","4","4","0","3","4","4","4","0","4","null","<div style=""font-size:75px;""><b>Correct</b></div>","null","","","","","","","","","","","","","","","","","","",""
"","html-keyboard-response","64","162688","0.0-2.18-2.18","014 ","37","f","1658956570934","q","q","Only if I get the answer right","Nothing","A fixed time limit","4","female","No","Much faster/harder than expected!","3","1","0","1","1","0","0","1","0","0","1","1","0","0","0","0","1","0","1","0","0","3","2","1","1","0","1","0","0","1","0","1","0","0","0","2","1","0","0","1","0","1","0","0","1","3","3","0","0","0","4","0","0","4","4","4","0","3","4","4","4","0","4","656.3000000119209","","q","","true","practice","18","down","up","0","q","1","0","1658956734225","","","","","","","",""
"","html-keyboard-response","65","163259","0.0-2.19-0.19","014 ","37","f","1658956570934","q","q","Only if I get the answer right","Nothing","A fixed time limit","4","female","No","Much faster/harder than expected!","3","1","0","1","1","0","0","1","0","0","1","1","0","0","0","0","1","0","1","0","0","3","2","1","1","0","1","0","0","1","0","1","0","0","0","2","1","0","0","1","0","1","0","0","1","3","3","0","0","0","4","0","0","4","4","4","0","3","4","4","4","0","4","570.8000000119209","<br><br><br><br><table><tr><td><img src=static/images/oddball_up.png></td><td><img src=static/images/oddball_down.png></td><td><img src=static/images/oddball_up.png></td></tr></table>","87","1","","","","","","","","","","","","","","","","","",""
"","html-keyboard-response","66","165774","0.0-2.19-1.19","014 ","37","f","1658956570934","q","q","Only if I get the answer right","Nothing","A fixed time limit","4","female","No","Much faster/harder than expected!","3","1","0","1","1","0","0","1","0","0","1","1","0","0","0","0","1","0","1","0","0","3","2","1","1","0","1","0","0","1","0","1","0","0","0","2","1","0","0","1","0","1","0","0","1","3","3","0","0","0","4","0","0","4","4","4","0","3","4","4","4","0","4","null","<div style=""font-size:75px;""><b>Correct</b></div>","null","","","","","","","","","","","","","","","","","","",""
"","html-keyboard-response","67","166782","0.0-2.19-2.19","014 ","37","f","1658956570934","q","q","Only if I get the answer right","Nothing","A fixed time limit","4","female","No","Much faster/harder than expected!","3","1","0","1","1","0","0","1","0","0","1","1","0","0","0","0","1","0","1","0","0","3","2","1","1","0","1","0","0","1","0","1","0","0","0","2","1","0","0","1","0","1","0","0","1","3","3","0","0","0","4","0","0","4","4","4","0","3","4","4","4","0","4","570.8000000119209","","w","","true","practice","19","up","down","1","w","1","0","1658956738319","","","","","","","",""
"","image-keyboard-response","68","171459","0.0-3.0-0.0","014 ","37","f","1658956570934","q","q","Only if I get the answer right","Nothing","A fixed time limit","4","female","No","Much faster/harder than expected!","3","1","0","1","1","0","0","1","0","0","1","1","0","0","0","0","1","0","1","0","0","3","2","1","1","0","1","0","0","1","0","1","0","0","0","2","1","0","0","1","0","1","0","0","1","3","3","0","0","0","4","0","0","4","4","4","0","3","4","4","4","0","4","4676.399999976158","static/images/instructions/Slide8.png","39","","","","","","","","","","","","","","","","","","",""
"","image-keyboard-response","69","185082","0.0-3.1-0.1","014 ","37","f","1658956570934","q","q","Only if I get the answer right","Nothing","A fixed time limit","4","female","No","Much faster/harder than expected!","3","1","0","1","1","0","0","1","0","0","1","1","0","0","0","0","1","0","1","0","0","3","2","1","1","0","1","0","0","1","0","1","0","0","0","2","1","0","0","1","0","1","0","0","1","3","3","0","0","0","4","0","0","4","4","4","0","3","4","4","4","0","4","13631.300000011921","static/images/instructions/Slide9.png","39","","","","","","","","","","","","","","","","","","",""
"","image-keyboard-response","70","191306","0.0-3.2-0.2","014 ","37","f","1658956570934","q","q","Only if I get the answer right","Nothing","A fixed time limit","4","female","No","Much faster/harder than expected!","3","1","0","1","1","0","0","1","0","0","1","1","0","0","0","0","1","0","1","0","0","3","2","1","1","0","1","0","0","1","0","1","0","0","0","2","1","0","0","1","0","1","0","0","1","3","3","0","0","0","4","0","0","4","4","4","0","3","4","4","4","0","4","6223.300000011921","static/images/instructions/Slide10.png","39","","","","","","","","","","","","","","","","","","",""
"","image-keyboard-response","71","202714","0.0-3.3-0.3","014 ","37","f","1658956570934","q","q","Only if I get the answer right","Nothing","A fixed time limit","4","female","No","Much faster/harder than expected!","3","1","0","1","1","0","0","1","0","0","1","1","0","0","0","0","1","0","1","0","0","3","2","1","1","0","1","0","0","1","0","1","0","0","0","2","1","0","0","1","0","1","0","0","1","3","3","0","0","0","4","0","0","4","4","4","0","3","4","4","4","0","4","11407.400000035763","static/images/instructions/Slide11.png","39","","","","","","","","","","","","","","","","","","",""
"","image-keyboard-response","72","204618","0.0-3.4-0.4","014 ","37","f","1658956570934","q","q","Only if I get the answer right","Nothing","A fixed time limit","4","female","No","Much faster/harder than expected!","3","1","0","1","1","0","0","1","0","0","1","1","0","0","0","0","1","0","1","0","0","3","2","1","1","0","1","0","0","1","0","1","0","0","0","2","1","0","0","1","0","1","0","0","1","3","3","0","0","0","4","0","0","4","4","4","0","3","4","4","4","0","4","1903.199999988079","static/images/instructions/Slide12.png","39","","","","","","","","","","","","","","","","","","",""
"","image-keyboard-response","73","212505","0.0-3.5-0.5","014 ","37","f","1658956570934","q","q","Only if I get the answer right","Nothing","A fixed time limit","4","female","No","Much faster/harder than expected!","3","1","0","1","1","0","0","1","0","0","1","1","0","0","0","0","1","0","1","0","0","3","2","1","1","0","1","0","0","1","0","1","0","0","0","2","1","0","0","1","0","1","0","0","1","3","3","0","0","0","4","0","0","4","4","4","0","3","4","4","4","0","4","7887.5","static/images/instructions/Slide13.png","39","","","","","","","","","","","","","","","","","","",""
"","image-keyboard-response","74","223730","0.0-3.6-0.6","014 ","37","f","1658956570934","q","q","Only if I get the answer right","Nothing","A fixed time limit","4","female","No","Much faster/harder than expected!","3","1","0","1","1","0","0","1","0","0","1","1","0","0","0","0","1","0","1","0","0","3","2","1","1","0","1","0","0","1","0","1","0","0","0","2","1","0","0","1","0","1","0","0","1","3","3","0","0","0","4","0","0","4","4","4","0","3","4","4","4","0","4","11223.699999988079","static/images/instructions/Slide14.png","39","","","","","","","","","","","","","","","","","","",""
"","image-keyboard-response","75","230210","0.0-3.7-0.7","014 ","37","f","1658956570934","q","q","Only if I get the answer right","Nothing","A fixed time limit","4","female","No","Much faster/harder than expected!","3","1","0","1","1","0","0","1","0","0","1","1","0","0","0","0","1","0","1","0","0","3","2","1","1","0","1","0","0","1","0","1","0","0","0","2","1","0","0","1","0","1","0","0","1","3","3","0","0","0","4","0","0","4","4","4","0","3","4","4","4","0","4","6479.299999952316","static/images/instructions/Slide15.png","39","","","","","","","","","","","","","","","","","","",""
"","image-keyboard-response","76","248874","0.0-3.8-0.8","014 ","37","f","1658956570934","q","q","Only if I get the answer right","Nothing","A fixed time limit","4","female","No","Much faster/harder than expected!","3","1","0","1","1","0","0","1","0","0","1","1","0","0","0","0","1","0","1","0","0","3","2","1","1","0","1","0","0","1","0","1","0","0","0","2","1","0","0","1","0","1","0","0","1","3","3","0","0","0","4","0","0","4","4","4","0","3","4","4","4","0","4","18655.69999998808","static/images/instructions/Slide16.png","39","","","","","","","","","","","","","","","","","","",""
"","image-keyboard-response","77","252178","0.0-3.9-0.9","014 ","37","f","1658956570934","q","q","Only if I get the answer right","Nothing","A fixed time limit","4","female","No","Much faster/harder than expected!","3","1","0","1","1","0","0","1","0","0","1","1","0","0","0","0","1","0","1","0","0","3","2","1","1","0","1","0","0","1","0","1","0","0","0","2","1","0","0","1","0","1","0","0","1","3","3","0","0","0","4","0","0","4","4","4","0","3","4","4","4","0","4","3303.099999964237","static/images/instructions/Slide17.png","39","","","","","","","","","","","","","","","","","","",""
"","survey-multi-choice","78","303491","0.0-4.0","014 ","37","f","1658956570934","q","q","Only if I get the answer right","Nothing","A fixed time limit","4","female","No","Much faster/harder than expected!","3","1","0","1","1","0","0","1","0","0","1","1","0","0","0","0","1","0","1","0","0","3","2","1","1","0","1","0","0","1","0","1","0","0","0","2","1","0","0","1","0","1","0","0","1","3","3","0","0","0","4","0","0","4","4","4","0","3","4","4","4","0","4","51311.10000002384","","","","","","","","","","","","","","{""q1"":""q"",""q2"":""q"",""q3"":""Only if I get the answer right"",""q4"":""Nothing"",""q5"":""A fixed time limit""}","[4,1,3,2,0]","","","","","",""
"","image-keyboard-response","79","313699","0.0-5.0-0.0","014 ","37","f","1658956570934","q","q","Only if I get the answer right","Nothing","A fixed time limit","4","female","No","Much faster/harder than expected!","3","1","0","1","1","0","0","1","0","0","1","1","0","0","0","0","1","0","1","0","0","3","2","1","1","0","1","0","0","1","0","1","0","0","0","2","1","0","0","1","0","1","0","0","1","3","3","0","0","0","4","0","0","4","4","4","0","3","4","4","4","0","4","10205.899999976158","static/images/instructions/Slide18.png","39","","","","","","","","","","","","","","","","","","",""
"","html-keyboard-response","80","314706","0.0-6.0-0.0-0.0","014 ","37","f","1658956570934","q","q","Only if I get the answer right","Nothing","A fixed time limit","4","female","No","Much faster/harder than expected!","3","1","0","1","1","0","0","1","0","0","1","1","0","0","0","0","1","0","1","0","0","3","2","1","1","0","1","0","0","1","0","1","0","0","0","2","1","0","0","1","0","1","0","0","1","3","3","0","0","0","4","0","0","4","4","4","0","3","4","4","4","0","4","null","<div style=""font-size:75px;"">3</div>","null","","","","","","","","","","","","","","","","","","",""
"","html-keyboard-response","81","315709","0.0-6.0-0.1-0.1","014 ","37","f","1658956570934","q","q","Only if I get the answer right","Nothing","A fixed time limit","4","female","No","Much faster/harder than expected!","3","1","0","1","1","0","0","1","0","0","1","1","0","0","0","0","1","0","1","0","0","3","2","1","1","0","1","0","0","1","0","1","0","0","0","2","1","0","0","1","0","1","0","0","1","3","3","0","0","0","4","0","0","4","4","4","0","3","4","4","4","0","4","null","<div style=""font-size:75px;"">2</div>","null","","","","","","","","","","","","","","","","","","",""
"","html-keyboard-response","82","316711","0.0-6.0-0.2-0.2","014 ","37","f","1658956570934","q","q","Only if I get the answer right","Nothing","A fixed time limit","4","female","No","Much faster/harder than expected!","3","1","0","1","1","0","0","1","0","0","1","1","0","0","0","0","1","0","1","0","0","3","2","1","1","0","1","0","0","1","0","1","0","0","0","2","1","0","0","1","0","1","0","0","1","3","3","0","0","0","4","0","0","4","4","4","0","3","4","4","4","0","4","null","<div style=""font-size:75px;"">1</div>","null","","","","","","","","","","","","","","","","","","",""
"","html-keyboard-response","83","317463","0.0-6.0-1.0-0.0","014 ","37","f","1658956570934","q","q","Only if I get the answer right","Nothing","A fixed time limit","4","female","No","Much faster/harder than expected!","3","1","0","1","1","0","0","1","0","0","1","1","0","0","0","0","1","0","1","0","0","3","2","1","1","0","1","0","0","1","0","1","0","0","0","2","1","0","0","1","0","1","0","0","1","3","3","0","0","0","4","0","0","4","4","4","0","3","4","4","4","0","4","null","<div style=""color:green; font-size:75px;""><b>$1.00</b></div><br><br><br><br><table><tr><td><img src=static/images/oddball_down.png></td><td><img src=static/images/oddball_up.png></td><td><img src=static/images/oddball_up.png></td></tr></table>","null","","","","","","","","","","","","","","","","","","",""
"","html-keyboard-response","84","317468","0.0-6.0-1.0-1.0","014 ","37","f","1658956570934","q","q","Only if I get the answer right","Nothing","A fixed time limit","4","female","No","Much faster/harder than expected!","3","1","0","1","1","0","0","1","0","0","1","1","0","0","0","0","1","0","1","0","0","3","2","1","1","0","1","0","0","1","0","1","0","0","0","2","1","0","0","1","0","1","0","0","1","3","3","0","0","0","4","0","0","4","4","4","0","3","4","4","4","0","4","null","","null","","true","0","0","up","down","0","q","0","0","1658956889005","","","false","60","0","0","1","true"
"","html-keyboard-response","85","317747","0.0-6.0-1.1-0.1","014 ","37","f","1658956570934","q","q","Only if I get the answer right","Nothing","A fixed time limit","4","female","No","Much faster/harder than expected!","3","1","0","1","1","0","0","1","0","0","1","1","0","0","0","0","1","0","1","0","0","3","2","1","1","0","1","0","0","1","0","1","0","0","0","2","1","0","0","1","0","1","0","0","1","3","3","0","0","0","4","0","0","4","4","4","0","3","4","4","4","0","4","278.30000001192093","<div style=""color:green; font-size:75px;""><b>$1.00</b></div><br><br><br><br><table><tr><td><img src=static/images/oddball_down.png></td><td><img src=static/images/oddball_up.png></td><td><img src=static/images/oddball_down.png></td></tr></table>","81","1","","","","","","","","","","","","","","","","","",""
"","html-keyboard-response","86","317749","0.0-6.0-1.1-1.1","014 ","37","f","1658956570934","q","q","Only if I get the answer right","Nothing","A fixed time limit","4","female","No","Much faster/harder than expected!","3","1","0","1","1","0","0","1","0","0","1","1","0","0","0","0","1","0","1","0","0","3","2","1","1","0","1","0","0","1","0","1","0","0","0","2","1","0","0","1","0","1","0","0","1","3","3","0","0","0","4","0","0","4","4","4","0","3","4","4","4","0","4","278.30000001192093","","q","","true","0","1","down","up","1","w","0","0","1658956889286","","","false","60","1","0","1","false"
"","html-keyboard-response","87","318515","0.0-6.0-1.2-0.2","014 ","37","f","1658956570934","q","q","Only if I get the answer right","Nothing","A fixed time limit","4","female","No","Much faster/harder than expected!","3","1","0","1","1","0","0","1","0","0","1","1","0","0","0","0","1","0","1","0","0","3","2","1","1","0","1","0","0","1","0","1","0","0","0","2","1","0","0","1","0","1","0","0","1","3","3","0","0","0","4","0","0","4","4","4","0","3","4","4","4","0","4","null","<div style=""color:green; font-size:75px;""><b>$1.00</b></div><br><br><br><br><table><tr><td><img src=static/images/oddball_up.png></td><td><img src=static/images/oddball_down.png></td><td><img src=static/images/oddball_up.png></td></tr></table>","null","","","","","","","","","","","","","","","","","","",""
"","html-keyboard-response","88","318517","0.0-6.0-1.2-1.2","014 ","37","f","1658956570934","q","q","Only if I get the answer right","Nothing","A fixed time limit","4","female","No","Much faster/harder than expected!","3","1","0","1","1","0","0","1","0","0","1","1","0","0","0","0","1","0","1","0","0","3","2","1","1","0","1","0","0","1","0","1","0","0","0","2","1","0","0","1","0","1","0","0","1","3","3","0","0","0","4","0","0","4","4","4","0","3","4","4","4","0","4","null","","null","","true","0","2","up","down","1","w","0","0","1658956890054","","","false","60","2","0","1","true"
"","html-keyboard-response","89","318539","0.0-6.0-1.3-0.3","014 ","37","f","1658956570934","q","q","Only if I get the answer right","Nothing","A fixed time limit","4","female","No","Much faster/harder than expected!","3","1","0","1","1","0","0","1","0","0","1","1","0","0","0","0","1","0","1","0","0","3","2","1","1","0","1","0","0","1","0","1","0","0","0","2","1","0","0","1","0","1","0","0","1","3","3","0","0","0","4","0","0","4","4","4","0","3","4","4","4","0","4","21.30000001192093","<div style=""color:green; font-size:75px;""><b>$1.00</b></div><br><br><br><br><table><tr><td><img src=static/images/oddball_up.png></td><td><img src=static/images/oddball_up.png></td><td><img src=static/images/oddball_down.png></td></tr></table>","87","1","","","","","","","","","","","","","","","","","",""
"","html-keyboard-response","90","318542","0.0-6.0-1.3-1.3","014 ","37","f","1658956570934","q","q","Only if I get the answer right","Nothing","A fixed time limit","4","female","No","Much faster/harder than expected!","3","1","0","1","1","0","0","1","0","0","1","1","0","0","0","0","1","0","1","0","0","3","2","1","1","0","1","0","0","1","0","1","0","0","0","2","1","0","0","1","0","1","0","0","1","3","3","0","0","0","4","0","0","4","4","4","0","3","4","4","4","0","4","21.30000001192093","","w","","true","0","3","up","down","2","e","0","0","1658956890079","","","false","60","3","0","1","false"
"","html-keyboard-response","91","319131","0.0-6.0-1.4-0.4","014 ","37","f","1658956570934","q","q","Only if I get the answer right","Nothing","A fixed time limit","4","female","No","Much faster/harder than expected!","3","1","0","1","1","0","0","1","0","0","1","1","0","0","0","0","1","0","1","0","0","3","2","1","1","0","1","0","0","1","0","1","0","0","0","2","1","0","0","1","0","1","0","0","1","3","3","0","0","0","4","0","0","4","4","4","0","3","4","4","4","0","4","589.3000000119209","<div style=""color:green; font-size:75px;""><b>$1.00</b></div><br><br><br><br><table><tr><td><img src=static/images/oddball_up.png></td><td><img src=static/images/oddball_down.png></td><td><img src=static/images/oddball_up.png></td></tr></table>","87","1","","","","","","","","","","","","","","","","","",""
"","html-keyboard-response","92","319134","0.0-6.0-1.4-1.4","014 ","37","f","1658956570934","q","q","Only if I get the answer right","Nothing","A fixed time limit","4","female","No","Much faster/harder than expected!","3","1","0","1","1","0","0","1","0","0","1","1","0","0","0","0","1","0","1","0","0","3","2","1","1","0","1","0","0","1","0","1","0","0","0","2","1","0","0","1","0","1","0","0","1","3","3","0","0","0","4","0","0","4","4","4","0","3","4","4","4","0","4","589.3000000119209","","w","","true","0","4","up","down","1","w","1","0","1658956890671","","","false","60","4","0","1","false"
"","html-keyboard-response","93","319755","0.0-6.0-1.5-0.5","014 ","37","f","1658956570934","q","q","Only if I get the answer right","Nothing","A fixed time limit","4","female","No","Much faster/harder than expected!","3","1","0","1","1","0","0","1","0","0","1","1","0","0","0","0","1","0","1","0","0","3","2","1","1","0","1","0","0","1","0","1","0","0","0","2","1","0","0","1","0","1","0","0","1","3","3","0","0","0","4","0","0","4","4","4","0","3","4","4","4","0","4","620.8000000119209","<div style=""color:green; font-size:75px;""><b>$1.00</b></div><br><br><br><br><table><tr><td><img src=static/images/oddball_up.png></td><td><img src=static/images/oddball_down.png></td><td><img src=static/images/oddball_down.png></td></tr></table>","81","1","","","","","","","","","","","","","","","","","",""
"","html-keyboard-response","94","319757","0.0-6.0-1.5-1.5","014 ","37","f","1658956570934","q","q","Only if I get the answer right","Nothing","A fixed time limit","4","female","No","Much faster/harder than expected!","3","1","0","1","1","0","0","1","0","0","1","1","0","0","0","0","1","0","1","0","0","3","2","1","1","0","1","0","0","1","0","1","0","0","0","2","1","0","0","1","0","1","0","0","1","3","3","0","0","0","4","0","0","4","4","4","0","3","4","4","4","0","4","620.8000000119209","","q","","true","0","5","down","up","0","q","1","0","1658956891294","","","false","60","5","0.016666666666666666","1","false"
"","html-keyboard-response","95","320323","0.0-6.0-1.6-0.6","014 ","37","f","1658956570934","q","q","Only if I get the answer right","Nothing","A fixed time limit","4","female","No","Much faster/harder than expected!","3","1","0","1","1","0","0","1","0","0","1","1","0","0","0","0","1","0","1","0","0","3","2","1","1","0","1","0","0","1","0","1","0","0","0","2","1","0","0","1","0","1","0","0","1","3","3","0","0","0","4","0","0","4","4","4","0","3","4","4","4","0","4","565.1000000238419","<div style=""color:green; font-size:75px;""><b>$1.00</b></div><br><br><br><br><table><tr><td><img src=static/images/oddball_up.png></td><td><img src=static/images/oddball_down.png></td><td><img src=static/images/oddball_up.png></td></tr></table>","87","1","","","","","","","","","","","","","","","","","",""
"","html-keyboard-response","96","320325","0.0-6.0-1.6-1.6","014 ","37","f","1658956570934","q","q","Only if I get the answer right","Nothing","A fixed time limit","4","female","No","Much faster/harder than expected!","3","1","0","1","1","0","0","1","0","0","1","1","0","0","0","0","1","0","1","0","0","3","2","1","1","0","1","0","0","1","0","1","0","0","0","2","1","0","0","1","0","1","0","0","1","3","3","0","0","0","4","0","0","4","4","4","0","3","4","4","4","0","4","565.1000000238419","","w","","true","0","6","up","down","1","w","1","0","1658956891862","","","false","60","6","0.03333333333333333","1","false"
"","html-keyboard-response","97","321087","0.0-6.0-1.7-0.7","014 ","37","f","1658956570934","q","q","Only if I get the answer right","Nothing","A fixed time limit","4","female","No","Much faster/harder than expected!","3","1","0","1","1","0","0","1","0","0","1","1","0","0","0","0","1","0","1","0","0","3","2","1","1","0","1","0","0","1","0","1","0","0","0","2","1","0","0","1","0","1","0","0","1","3","3","0","0","0","4","0","0","4","4","4","0","3","4","4","4","0","4","null","<div style=""color:green; font-size:75px;""><b>$1.00</b></div><br><br><br><br><table><tr><td><img src=static/images/oddball_up.png></td><td><img src=static/images/oddball_down.png></td><td><img src=static/images/oddball_up.png></td></tr></table>","null","","","","","","","","","","","","","","","","","","",""
"","html-keyboard-response","98","321090","0.0-6.0-1.7-1.7","014 ","37","f","1658956570934","q","q","Only if I get the answer right","Nothing","A fixed time limit","4","female","No","Much faster/harder than expected!","3","1","0","1","1","0","0","1","0","0","1","1","0","0","0","0","1","0","1","0","0","3","2","1","1","0","1","0","0","1","0","1","0","0","0","2","1","0","0","1","0","1","0","0","1","3","3","0","0","0","4","0","0","4","4","4","0","3","4","4","4","0","4","null","","null","","true","0","7","up","down","1","w","0","0","1658956892627","","","false","60","7","0.05","1","true"
"","html-keyboard-response","99","321123","0.0-6.0-1.8-0.8","014 ","37","f","1658956570934","q","q","Only if I get the answer right","Nothing","A fixed time limit","4","female","No","Much faster/harder than expected!","3","1","0","1","1","0","0","1","0","0","1","1","0","0","0","0","1","0","1","0","0","3","2","1","1","0","1","0","0","1","0","1","0","0","0","2","1","0","0","1","0","1","0","0","1","3","3","0","0","0","4","0","0","4","4","4","0","3","4","4","4","0","4","32.19999998807907","<div style=""color:green; font-size:75px;""><b>$1.00</b></div><br><br><br><br><table><tr><td><img src=static/images/oddball_down.png></td><td><img src=static/images/oddball_up.png></td><td><img src=static/images/oddball_up.png></td></tr></table>","87","1","","","","","","","","","","","","","","","","","",""
"","html-keyboard-response","100","321125","0.0-6.0-1.8-1.8","014 ","37","f","1658956570934","q","q","Only if I get the answer right","Nothing","A fixed time limit","4","female","No","Much faster/harder than expected!","3","1","0","1","1","0","0","1","0","0","1","1","0","0","0","0","1","0","1","0","0","3","2","1","1","0","1","0","0","1","0","1","0","0","0","2","1","0","0","1","0","1","0","0","1","3","3","0","0","0","4","0","0","4","4","4","0","3","4","4","4","0","4","32.19999998807907","","w","","true","0","8","up","down","0","q","0","0","1658956892662","","","false","60","8","0.05","1","false"
"","html-keyboard-response","101","321811","0.0-6.0-1.9-0.9","014 ","37","f","1658956570934","q","q","Only if I get the answer right","Nothing","A fixed time limit","4","female","No","Much faster/harder than expected!","3","1","0","1","1","0","0","1","0","0","1","1","0","0","0","0","1","0","1","0","0","3","2","1","1","0","1","0","0","1","0","1","0","0","0","2","1","0","0","1","0","1","0","0","1","3","3","0","0","0","4","0","0","4","4","4","0","3","4","4","4","0","4","685.0999999642372","<div style=""color:green; font-size:75px;""><b>$1.00</b></div><br><br><br><br><table><tr><td><img src=static/images/oddball_down.png></td><td><img src=static/images/oddball_down.png></td><td><img src=static/images/oddball_up.png></td></tr></table>","69","1","","","","","","","","","","","","","","","","","",""
"","html-keyboard-response","102","321813","0.0-6.0-1.9-1.9","014 ","37","f","1658956570934","q","q","Only if I get the answer right","Nothing","A fixed time limit","4","female","No","Much faster/harder than expected!","3","1","0","1","1","0","0","1","0","0","1","1","0","0","0","0","1","0","1","0","0","3","2","1","1","0","1","0","0","1","0","1","0","0","0","2","1","0","0","1","0","1","0","0","1","3","3","0","0","0","4","0","0","4","4","4","0","3","4","4","4","0","4","685.0999999642372","","e","","true","0","9","down","up","2","e","1","0","1658956893350","","","false","60","9","0.05","1","false"
"","html-keyboard-response","103","322573","0.0-6.0-1.10-0.10","014 ","37","f","1658956570934","q","q","Only if I get the answer right","Nothing","A fixed time limit","4","female","No","Much faster/harder than expected!","3","1","0","1","1","0","0","1","0","0","1","1","0","0","0","0","1","0","1","0","0","3","2","1","1","0","1","0","0","1","0","1","0","0","0","2","1","0","0","1","0","1","0","0","1","3","3","0","0","0","4","0","0","4","4","4","0","3","4","4","4","0","4","null","<div style=""color:green; font-size:75px;""><b>$1.00</b></div><br><br><br><br><table><tr><td><img src=static/images/oddball_down.png></td><td><img src=static/images/oddball_up.png></td><td><img src=static/images/oddball_up.png></td></tr></table>","null","","","","","","","","","","","","","","","","","","",""
"","html-keyboard-response","104","322576","0.0-6.0-1.10-1.10","014 ","37","f","1658956570934","q","q","Only if I get the answer right","Nothing","A fixed time limit","4","female","No","Much faster/harder than expected!","3","1","0","1","1","0","0","1","0","0","1","1","0","0","0","0","1","0","1","0","0","3","2","1","1","0","1","0","0","1","0","1","0","0","0","2","1","0","0","1","0","1","0","0","1","3","3","0","0","0","4","0","0","4","4","4","0","3","4","4","4","0","4","null","","null","","true","0","10","up","down","0","q","0","0","1658956894113","","","false","60","10","0.06666666666666667","1","true"
"","html-keyboard-response","105","322683","0.0-6.0-1.11-0.11","014 ","37","f","1658956570934","q","q","Only if I get the answer right","Nothing","A fixed time limit","4","female","No","Much faster/harder than expected!","3","1","0","1","1","0","0","1","0","0","1","1","0","0","0","0","1","0","1","0","0","3","2","1","1","0","1","0","0","1","0","1","0","0","0","2","1","0","0","1","0","1","0","0","1","3","3","0","0","0","4","0","0","4","4","4","0","3","4","4","4","0","4","106.90000003576279","<div style=""color:green; font-size:75px;""><b>$1.00</b></div><br><br><br><br><table><tr><td><img src=static/images/oddball_up.png></td><td><img src=static/images/oddball_down.png></td><td><img src=static/images/oddball_up.png></td></tr></table>","81","1","","","","","","","","","","","","","","","","","",""
"","html-keyboard-response","106","322685","0.0-6.0-1.11-1.11","014 ","37","f","1658956570934","q","q","Only if I get the answer right","Nothing","A fixed time limit","4","female","No","Much faster/harder than expected!","3","1","0","1","1","0","0","1","0","0","1","1","0","0","0","0","1","0","1","0","0","3","2","1","1","0","1","0","0","1","0","1","0","0","0","2","1","0","0","1","0","1","0","0","1","3","3","0","0","0","4","0","0","4","4","4","0","3","4","4","4","0","4","106.90000003576279","","q","","true","0","11","up","down","1","w","0","0","1658956894223","","","false","60","11","0.06666666666666667","1","false"
"","html-keyboard-response","107","323267","0.0-6.0-1.12-0.12","014 ","37","f","1658956570934","q","q","Only if I get the answer right","Nothing","A fixed time limit","4","female","No","Much faster/harder than expected!","3","1","0","1","1","0","0","1","0","0","1","1","0","0","0","0","1","0","1","0","0","3","2","1","1","0","1","0","0","1","0","1","0","0","0","2","1","0","0","1","0","1","0","0","1","3","3","0","0","0","4","0","0","4","4","4","0","3","4","4","4","0","4","580.8999999761581","<div style=""color:green; font-size:75px;""><b>$1.00</b></div><br><br><br><br><table><tr><td><img src=static/images/oddball_down.png></td><td><img src=static/images/oddball_down.png></td><td><img src=static/images/oddball_up.png></td></tr></table>","69","1","","","","","","","","","","","","","","","","","",""
"","html-keyboard-response","108","323270","0.0-6.0-1.12-1.12","014 ","37","f","1658956570934","q","q","Only if I get the answer right","Nothing","A fixed time limit","4","female","No","Much faster/harder than expected!","3","1","0","1","1","0","0","1","0","0","1","1","0","0","0","0","1","0","1","0","0","3","2","1","1","0","1","0","0","1","0","1","0","0","0","2","1","0","0","1","0","1","0","0","1","3","3","0","0","0","4","0","0","4","4","4","0","3","4","4","4","0","4","580.8999999761581","","e","","true","0","12","down","up","2","e","1","0","1658956894807","","","false","60","12","0.06666666666666667","1","false"
"","html-keyboard-response","109","323499","0.0-6.0-1.13-0.13","014 ","37","f","1658956570934","q","q","Only if I get the answer right","Nothing","A fixed time limit","4","female","No","Much faster/harder than expected!","3","1","0","1","1","0","0","1","0","0","1","1","0","0","0","0","1","0","1","0","0","3","2","1","1","0","1","0","0","1","0","1","0","0","0","2","1","0","0","1","0","1","0","0","1","3","3","0","0","0","4","0","0","4","4","4","0","3","4","4","4","0","4","228.69999998807907","<div style=""color:green; font-size:75px;""><b>$1.00</b></div><br><br><br><br><table><tr><td><img src=static/images/oddball_up.png></td><td><img src=static/images/oddball_down.png></td><td><img src=static/images/oddball_down.png></td></tr></table>","69","1","","","","","","","","","","","","","","","","","",""
"","html-keyboard-response","110","323501","0.0-6.0-1.13-1.13","014 ","37","f","1658956570934","q","q","Only if I get the answer right","Nothing","A fixed time limit","4","female","No","Much faster/harder than expected!","3","1","0","1","1","0","0","1","0","0","1","1","0","0","0","0","1","0","1","0","0","3","2","1","1","0","1","0","0","1","0","1","0","0","0","2","1","0","0","1","0","1","0","0","1","3","3","0","0","0","4","0","0","4","4","4","0","3","4","4","4","0","4","228.69999998807907","","e","","true","0","13","down","up","0","q","0","0","1658956895038","","","false","60","13","0.08333333333333333","1","false"
"","html-keyboard-response","111","323883","0.0-6.0-1.14-0.14","014 ","37","f","1658956570934","q","q","Only if I get the answer right","Nothing","A fixed time limit","4","female","No","Much faster/harder than expected!","3","1","0","1","1","0","0","1","0","0","1","1","0","0","0","0","1","0","1","0","0","3","2","1","1","0","1","0","0","1","0","1","0","0","0","2","1","0","0","1","0","1","0","0","1","3","3","0","0","0","4","0","0","4","4","4","0","3","4","4","4","0","4","381.30000001192093","<div style=""color:green; font-size:75px;""><b>$1.00</b></div><br><br><br><br><table><tr><td><img src=static/images/oddball_up.png></td><td><img src=static/images/oddball_down.png></td><td><img src=static/images/oddball_down.png></td></tr></table>","81","1","","","","","","","","","","","","","","","","","",""
"","html-keyboard-response","112","323885","0.0-6.0-1.14-1.14","014 ","37","f","1658956570934","q","q","Only if I get the answer right","Nothing","A fixed time limit","4","female","No","Much faster/harder than expected!","3","1","0","1","1","0","0","1","0","0","1","1","0","0","0","0","1","0","1","0","0","3","2","1","1","0","1","0","0","1","0","1","0","0","0","2","1","0","0","1","0","1","0","0","1","3","3","0","0","0","4","0","0","4","4","4","0","3","4","4","4","0","4","381.30000001192093","","q","","true","0","14","down","up","0","q","1","0","1658956895422","","","false","60","14","0.08333333333333333","1","false"
"","html-keyboard-response","113","324644","0.0-6.0-1.15-0.15","014 ","37","f","1658956570934","q","q","Only if I get the answer right","Nothing","A fixed time limit","4","female","No","Much faster/harder than expected!","3","1","0","1","1","0","0","1","0","0","1","1","0","0","0","0","1","0","1","0","0","3","2","1","1","0","1","0","0","1","0","1","0","0","0","2","1","0","0","1","0","1","0","0","1","3","3","0","0","0","4","0","0","4","4","4","0","3","4","4","4","0","4","null","<div style=""color:green; font-size:75px;""><b>$1.00</b></div><br><br><br><br><table><tr><td><img src=static/images/oddball_up.png></td><td><img src=static/images/oddball_down.png></td><td><img src=static/images/oddball_down.png></td></tr></table>","null","","","","","","","","","","","","","","","","","","",""
"","html-keyboard-response","114","324646","0.0-6.0-1.15-1.15","014 ","37","f","1658956570934","q","q","Only if I get the answer right","Nothing","A fixed time limit","4","female","No","Much faster/harder than expected!","3","1","0","1","1","0","0","1","0","0","1","1","0","0","0","0","1","0","1","0","0","3","2","1","1","0","1","0","0","1","0","1","0","0","0","2","1","0","0","1","0","1","0","0","1","3","3","0","0","0","4","0","0","4","4","4","0","3","4","4","4","0","4","null","","null","","true","0","15","down","up","0","q","0","0","1658956896183","","","false","60","15","0.1","1","true"
"","html-keyboard-response","115","325203","0.0-6.0-1.16-0.16","014 ","37","f","1658956570934","q","q","Only if I get the answer right","Nothing","A fixed time limit","4","female","No","Much faster/harder than expected!","3","1","0","1","1","0","0","1","0","0","1","1","0","0","0","0","1","0","1","0","0","3","2","1","1","0","1","0","0","1","0","1","0","0","0","2","1","0","0","1","0","1","0","0","1","3","3","0","0","0","4","0","0","4","4","4","0","3","4","4","4","0","4","556.2999999523163","<div style=""color:green; font-size:75px;""><b>$1.00</b></div><br><br><br><br><table><tr><td><img src=static/images/oddball_up.png></td><td><img src=static/images/oddball_down.png></td><td><img src=static/images/oddball_down.png></td></tr></table>","81","1","","","","","","","","","","","","","","","","","",""
"","html-keyboard-response","116","325205","0.0-6.0-1.16-1.16","014 ","37","f","1658956570934","q","q","Only if I get the answer right","Nothing","A fixed time limit","4","female","No","Much faster/harder than expected!","3","1","0","1","1","0","0","1","0","0","1","1","0","0","0","0","1","0","1","0","0","3","2","1","1","0","1","0","0","1","0","1","0","0","0","2","1","0","0","1","0","1","0","0","1","3","3","0","0","0","4","0","0","4","4","4","0","3","4","4","4","0","4","556.2999999523163","","q","","true","0","16","down","up","0","q","1","0","1658956896743","","","false","60","16","0.1","1","false"
"","html-keyboard-response","117","325819","0.0-6.0-1.17-0.17","014 ","37","f","1658956570934","q","q","Only if I get the answer right","Nothing","A fixed time limit","4","female","No","Much faster/harder than expected!","3","1","0","1","1","0","0","1","0","0","1","1","0","0","0","0","1","0","1","0","0","3","2","1","1","0","1","0","0","1","0","1","0","0","0","2","1","0","0","1","0","1","0","0","1","3","3","0","0","0","4","0","0","4","4","4","0","3","4","4","4","0","4","612.8999999761581","<div style=""color:green; font-size:75px;""><b>$1.00</b></div><br><br><br><br><table><tr><td><img src=static/images/oddball_down.png></td><td><img src=static/images/oddball_up.png></td><td><img src=static/images/oddball_down.png></td></tr></table>","87","1","","","","","","","","","","","","","","","","","",""
"","html-keyboard-response","118","325821","0.0-6.0-1.17-1.17","014 ","37","f","1658956570934","q","q","Only if I get the answer right","Nothing","A fixed time limit","4","female","No","Much faster/harder than expected!","3","1","0","1","1","0","0","1","0","0","1","1","0","0","0","0","1","0","1","0","0","3","2","1","1","0","1","0","0","1","0","1","0","0","0","2","1","0","0","1","0","1","0","0","1","3","3","0","0","0","4","0","0","4","4","4","0","3","4","4","4","0","4","612.8999999761581","","w","","true","0","17","down","up","1","w","1","0","1658956897358","","","false","60","17","0.11666666666666667","1","false"
"","html-keyboard-response","119","326581","0.0-6.0-1.18-0.18","014 ","37","f","1658956570934","q","q","Only if I get the answer right","Nothing","A fixed time limit","4","female","No","Much faster/harder than expected!","3","1","0","1","1","0","0","1","0","0","1","1","0","0","0","0","1","0","1","0","0","3","2","1","1","0","1","0","0","1","0","1","0","0","0","2","1","0","0","1","0","1","0","0","1","3","3","0","0","0","4","0","0","4","4","4","0","3","4","4","4","0","4","null","<div style=""color:green; font-size:75px;""><b>$1.00</b></div><br><br><br><br><table><tr><td><img src=static/images/oddball_up.png></td><td><img src=static/images/oddball_down.png></td><td><img src=static/images/oddball_down.png></td></tr></table>","null","","","","","","","","","","","","","","","","","","",""
"","html-keyboard-response","120","326583","0.0-6.0-1.18-1.18","014 ","37","f","1658956570934","q","q","Only if I get the answer right","Nothing","A fixed time limit","4","female","No","Much faster/harder than expected!","3","1","0","1","1","0","0","1","0","0","1","1","0","0","0","0","1","0","1","0","0","3","2","1","1","0","1","0","0","1","0","1","0","0","0","2","1","0","0","1","0","1","0","0","1","3","3","0","0","0","4","0","0","4","4","4","0","3","4","4","4","0","4","null","","null","","true","0","18","down","up","0","q","0","0","1658956898120","","","false","60","18","0.13333333333333333","1","true"
"","html-keyboard-response","121","326643","0.0-6.0-1.19-0.19","014 ","37","f","1658956570934","q","q","Only if I get the answer right","Nothing","A fixed time limit","4","female","No","Much faster/harder than expected!","3","1","0","1","1","0","0","1","0","0","1","1","0","0","0","0","1","0","1","0","0","3","2","1","1","0","1","0","0","1","0","1","0","0","0","2","1","0","0","1","0","1","0","0","1","3","3","0","0","0","4","0","0","4","4","4","0","3","4","4","4","0","4","59.5","<div style=""color:green; font-size:75px;""><b>$1.00</b></div><br><br><br><br><table><tr><td><img src=static/images/oddball_down.png></td><td><img src=static/images/oddball_down.png></td><td><img src=static/images/oddball_up.png></td></tr></table>","81","1","","","","","","","","","","","","","","","","","",""
"","html-keyboard-response","122","326645","0.0-6.0-1.19-1.19","014 ","37","f","1658956570934","q","q","Only if I get the answer right","Nothing","A fixed time limit","4","female","No","Much faster/harder than expected!","3","1","0","1","1","0","0","1","0","0","1","1","0","0","0","0","1","0","1","0","0","3","2","1","1","0","1","0","0","1","0","1","0","0","0","2","1","0","0","1","0","1","0","0","1","3","3","0","0","0","4","0","0","4","4","4","0","3","4","4","4","0","4","59.5","","q","","true","0","19","down","up","2","e","0","0","1658956898182","","","false","60","19","0.13333333333333333","1","false"
"","html-keyboard-response","123","327267","0.0-6.0-1.20-0.20","014 ","37","f","1658956570934","q","q","Only if I get the answer right","Nothing","A fixed time limit","4","female","No","Much faster/harder than expected!","3","1","0","1","1","0","0","1","0","0","1","1","0","0","0","0","1","0","1","0","0","3","2","1","1","0","1","0","0","1","0","1","0","0","0","2","1","0","0","1","0","1","0","0","1","3","3","0","0","0","4","0","0","4","4","4","0","3","4","4","4","0","4","621","<div style=""color:green; font-size:75px;""><b>$1.00</b></div><br><br><br><br><table><tr><td><img src=static/images/oddball_down.png></td><td><img src=static/images/oddball_up.png></td><td><img src=static/images/oddball_up.png></td></tr></table>","81","1","","","","","","","","","","","","","","","","","",""
"","html-keyboard-response","124","327269","0.0-6.0-1.20-1.20","014 ","37","f","1658956570934","q","q","Only if I get the answer right","Nothing","A fixed time limit","4","female","No","Much faster/harder than expected!","3","1","0","1","1","0","0","1","0","0","1","1","0","0","0","0","1","0","1","0","0","3","2","1","1","0","1","0","0","1","0","1","0","0","0","2","1","0","0","1","0","1","0","0","1","3","3","0","0","0","4","0","0","4","4","4","0","3","4","4","4","0","4","621","","q","","true","0","20","up","down","0","q","1","0","1658956898806","","","false","60","20","0.13333333333333333","1","false"
"","html-keyboard-response","125","328034","0.0-6.0-1.21-0.21","014 ","37","f","1658956570934","q","q","Only if I get the answer right","Nothing","A fixed time limit","4","female","No","Much faster/harder than expected!","3","1","0","1","1","0","0","1","0","0","1","1","0","0","0","0","1","0","1","0","0","3","2","1","1","0","1","0","0","1","0","1","0","0","0","2","1","0","0","1","0","1","0","0","1","3","3","0","0","0","4","0","0","4","4","4","0","3","4","4","4","0","4","null","<div style=""color:green; font-size:75px;""><b>$1.00</b></div><br><br><br><br><table><tr><td><img src=static/images/oddball_down.png></td><td><img src=static/images/oddball_up.png></td><td><img src=static/images/oddball_up.png></td></tr></table>","null","","","","","","","","","","","","","","","","","","",""
"","html-keyboard-response","126","328036","0.0-6.0-1.21-1.21","014 ","37","f","1658956570934","q","q","Only if I get the answer right","Nothing","A fixed time limit","4","female","No","Much faster/harder than expected!","3","1","0","1","1","0","0","1","0","0","1","1","0","0","0","0","1","0","1","0","0","3","2","1","1","0","1","0","0","1","0","1","0","0","0","2","1","0","0","1","0","1","0","0","1","3","3","0","0","0","4","0","0","4","4","4","0","3","4","4","4","0","4","null","","null","","true","0","21","up","down","0","q","0","0","1658956899573","","","false","60","21","0.15","1","true"
"","html-keyboard-response","127","328691","0.0-6.0-1.22-0.22","014 ","37","f","1658956570934","q","q","Only if I get the answer right","Nothing","A fixed time limit","4","female","No","Much faster/harder than expected!","3","1","0","1","1","0","0","1","0","0","1","1","0","0","0","0","1","0","1","0","0","3","2","1","1","0","1","0","0","1","0","1","0","0","0","2","1","0","0","1","0","1","0","0","1","3","3","0","0","0","4","0","0","4","4","4","0","3","4","4","4","0","4","654.3000000119209","<div style=""color:green; font-size:75px;""><b>$1.00</b></div><br><br><br><br><table><tr><td><img src=static/images/oddball_up.png></td><td><img src=static/images/oddball_down.png></td><td><img src=static/images/oddball_down.png></td></tr></table>","81","1","","","","","","","","","","","","","","","","","",""
"","html-keyboard-response","128","328693","0.0-6.0-1.22-1.22","014 ","37","f","1658956570934","q","q","Only if I get the answer right","Nothing","A fixed time limit","4","female","No","Much faster/harder than expected!","3","1","0","1","1","0","0","1","0","0","1","1","0","0","0","0","1","0","1","0","0","3","2","1","1","0","1","0","0","1","0","1","0","0","0","2","1","0","0","1","0","1","0","0","1","3","3","0","0","0","4","0","0","4","4","4","0","3","4","4","4","0","4","654.3000000119209","","q","","true","0","22","down","up","0","q","1","0","1658956900231","","","false","60","22","0.15","1","false"
"","html-keyboard-response","129","329379","0.0-6.0-1.23-0.23","014 ","37","f","1658956570934","q","q","Only if I get the answer right","Nothing","A fixed time limit","4","female","No","Much faster/harder than expected!","3","1","0","1","1","0","0","1","0","0","1","1","0","0","0","0","1","0","1","0","0","3","2","1","1","0","1","0","0","1","0","1","0","0","0","2","1","0","0","1","0","1","0","0","1","3","3","0","0","0","4","0","0","4","4","4","0","3","4","4","4","0","4","685","<div style=""color:green; font-size:75px;""><b>$1.00</b></div><br><br><br><br><table><tr><td><img src=static/images/oddball_down.png></td><td><img src=static/images/oddball_down.png></td><td><img src=static/images/oddball_up.png></td></tr></table>","69","1","","","","","","","","","","","","","","","","","",""
"","html-keyboard-response","130","329381","0.0-6.0-1.23-1.23","014 ","37","f","1658956570934","q","q","Only if I get the answer right","Nothing","A fixed time limit","4","female","No","Much faster/harder than expected!","3","1","0","1","1","0","0","1","0","0","1","1","0","0","0","0","1","0","1","0","0","3","2","1","1","0","1","0","0","1","0","1","0","0","0","2","1","0","0","1","0","1","0","0","1","3","3","0","0","0","4","0","0","4","4","4","0","3","4","4","4","0","4","685","","e","","true","0","23","down","up","2","e","1","0","1658956900918","","","false","60","23","0.16666666666666666","1","false"
"","html-keyboard-response","131","329955","0.0-6.0-1.24-0.24","014 ","37","f","1658956570934","q","q","Only if I get the answer right","Nothing","A fixed time limit","4","female","No","Much faster/harder than expected!","3","1","0","1","1","0","0","1","0","0","1","1","0","0","0","0","1","0","1","0","0","3","2","1","1","0","1","0","0","1","0","1","0","0","0","2","1","0","0","1","0","1","0","0","1","3","3","0","0","0","4","0","0","4","4","4","0","3","4","4","4","0","4","573.0999999642372","<div style=""color:green; font-size:75px;""><b>$1.00</b></div><br><br><br><br><table><tr><td><img src=static/images/oddball_up.png></td><td><img src=static/images/oddball_down.png></td><td><img src=static/images/oddball_up.png></td></tr></table>","81","1","","","","","","","","","","","","","","","","","",""
"","html-keyboard-response","132","329957","0.0-6.0-1.24-1.24","014 ","37","f","1658956570934","q","q","Only if I get the answer right","Nothing","A fixed time limit","4","female","No","Much faster/harder than expected!","3","1","0","1","1","0","0","1","0","0","1","1","0","0","0","0","1","0","1","0","0","3","2","1","1","0","1","0","0","1","0","1","0","0","0","2","1","0","0","1","0","1","0","0","1","3","3","0","0","0","4","0","0","4","4","4","0","3","4","4","4","0","4","573.0999999642372","","q","","true","0","24","up","down","1","w","0","0","1658956901494","","","false","60","24","0.18333333333333332","1","false"
"","html-keyboard-response","133","330603","0.0-6.0-1.25-0.25","014 ","37","f","1658956570934","q","q","Only if I get the answer right","Nothing","A fixed time limit","4","female","No","Much faster/harder than expected!","3","1","0","1","1","0","0","1","0","0","1","1","0","0","0","0","1","0","1","0","0","3","2","1","1","0","1","0","0","1","0","1","0","0","0","2","1","0","0","1","0","1","0","0","1","3","3","0","0","0","4","0","0","4","4","4","0","3","4","4","4","0","4","644.8999999761581","<div style=""color:green; font-size:75px;""><b>$1.00</b></div><br><br><br><br><table><tr><td><img src=static/images/oddball_down.png></td><td><img src=static/images/oddball_up.png></td><td><img src=static/images/oddball_down.png></td></tr></table>","87","1","","","","","","","","","","","","","","","","","",""
"","html-keyboard-response","134","330605","0.0-6.0-1.25-1.25","014 ","37","f","1658956570934","q","q","Only if I get the answer right","Nothing","A fixed time limit","4","female","No","Much faster/harder than expected!","3","1","0","1","1","0","0","1","0","0","1","1","0","0","0","0","1","0","1","0","0","3","2","1","1","0","1","0","0","1","0","1","0","0","0","2","1","0","0","1","0","1","0","0","1","3","3","0","0","0","4","0","0","4","4","4","0","3","4","4","4","0","4","644.8999999761581","","w","","true","0","25","down","up","1","w","1","0","1658956902142","","","false","60","25","0.18333333333333332","1","false"
"","html-keyboard-response","135","331357","0.0-6.0-1.26-0.26","014 ","37","f","1658956570934","q","q","Only if I get the answer right","Nothing","A fixed time limit","4","female","No","Much faster/harder than expected!","3","1","0","1","1","0","0","1","0","0","1","1","0","0","0","0","1","0","1","0","0","3","2","1","1","0","1","0","0","1","0","1","0","0","0","2","1","0","0","1","0","1","0","0","1","3","3","0","0","0","4","0","0","4","4","4","0","3","4","4","4","0","4","null","<div style=""color:green; font-size:75px;""><b>$1.00</b></div><br><br><br><br><table><tr><td><img src=static/images/oddball_up.png></td><td><img src=static/images/oddball_down.png></td><td><img src=static/images/oddball_down.png></td></tr></table>","null","","","","","","","","","","","","","","","","","","",""
"","html-keyboard-response","136","331359","0.0-6.0-1.26-1.26","014 ","37","f","1658956570934","q","q","Only if I get the answer right","Nothing","A fixed time limit","4","female","No","Much faster/harder than expected!","3","1","0","1","1","0","0","1","0","0","1","1","0","0","0","0","1","0","1","0","0","3","2","1","1","0","1","0","0","1","0","1","0","0","0","2","1","0","0","1","0","1","0","0","1","3","3","0","0","0","4","0","0","4","4","4","0","3","4","4","4","0","4","null","","null","","true","0","26","down","up","0","q","0","0","1658956902896","","","false","60","26","0.2","1","true"
"","html-keyboard-response","137","331411","0.0-6.0-1.27-0.27","014 ","37","f","1658956570934","q","q","Only if I get the answer right","Nothing","A fixed time limit","4","female","No","Much faster/harder than expected!","3","1","0","1","1","0","0","1","0","0","1","1","0","0","0","0","1","0","1","0","0","3","2","1","1","0","1","0","0","1","0","1","0","0","0","2","1","0","0","1","0","1","0","0","1","3","3","0","0","0","4","0","0","4","4","4","0","3","4","4","4","0","4","51.30000001192093","<div style=""color:green; font-size:75px;""><b>$1.00</b></div><br><br><br><br><table><tr><td><img src=static/images/oddball_up.png></td><td><img src=static/images/oddball_down.png></td><td><img src=static/images/oddball_down.png></td></tr></table>","81","1","","","","","","","","","","","","","","","","","",""
"","html-keyboard-response","138","331413","0.0-6.0-1.27-1.27","014 ","37","f","1658956570934","q","q","Only if I get the answer right","Nothing","A fixed time limit","4","female","No","Much faster/harder than expected!","3","1","0","1","1","0","0","1","0","0","1","1","0","0","0","0","1","0","1","0","0","3","2","1","1","0","1","0","0","1","0","1","0","0","0","2","1","0","0","1","0","1","0","0","1","3","3","0","0","0","4","0","0","4","4","4","0","3","4","4","4","0","4","51.30000001192093","","q","","true","0","27","down","up","0","q","1","0","1658956902950","","","false","60","27","0.2","1","false"
"","html-keyboard-response","139","332051","0.0-6.0-1.28-0.28","014 ","37","f","1658956570934","q","q","Only if I get the answer right","Nothing","A fixed time limit","4","female","No","Much faster/harder than expected!","3","1","0","1","1","0","0","1","0","0","1","1","0","0","0","0","1","0","1","0","0","3","2","1","1","0","1","0","0","1","0","1","0","0","0","2","1","0","0","1","0","1","0","0","1","3","3","0","0","0","4","0","0","4","4","4","0","3","4","4","4","0","4","637.6999999880791","<div style=""color:green; font-size:75px;""><b>$1.00</b></div><br><br><br><br><table><tr><td><img src=static/images/oddball_down.png></td><td><img src=static/images/oddball_up.png></td><td><img src=static/images/oddball_up.png></td></tr></table>","81","1","","","","","","","","","","","","","","","","","",""
"","html-keyboard-response","140","332053","0.0-6.0-1.28-1.28","014 ","37","f","1658956570934","q","q","Only if I get the answer right","Nothing","A fixed time limit","4","female","No","Much faster/harder than expected!","3","1","0","1","1","0","0","1","0","0","1","1","0","0","0","0","1","0","1","0","0","3","2","1","1","0","1","0","0","1","0","1","0","0","0","2","1","0","0","1","0","1","0","0","1","3","3","0","0","0","4","0","0","4","4","4","0","3","4","4","4","0","4","637.6999999880791","","q","","true","0","28","up","down","0","q","1","0","1658956903590","","","false","60","28","0.21666666666666667","1","false"
"","html-keyboard-response","141","332747","0.0-6.0-1.29-0.29","014 ","37","f","1658956570934","q","q","Only if I get the answer right","Nothing","A fixed time limit","4","female","No","Much faster/harder than expected!","3","1","0","1","1","0","0","1","0","0","1","1","0","0","0","0","1","0","1","0","0","3","2","1","1","0","1","0","0","1","0","1","0","0","0","2","1","0","0","1","0","1","0","0","1","3","3","0","0","0","4","0","0","4","4","4","0","3","4","4","4","0","4","693.4000000357628","<div style=""color:green; font-size:75px;""><b>$1.00</b></div><br><br><br><br><table><tr><td><img src=static/images/oddball_down.png></td><td><img src=static/images/oddball_down.png></td><td><img src=static/images/oddball_up.png></td></tr></table>","69","1","","","","","","","","","","","","","","","","","",""
"","html-keyboard-response","142","332750","0.0-6.0-1.29-1.29","014 ","37","f","1658956570934","q","q","Only if I get the answer right","Nothing","A fixed time limit","4","female","No","Much faster/harder than expected!","3","1","0","1","1","0","0","1","0","0","1","1","0","0","0","0","1","0","1","0","0","3","2","1","1","0","1","0","0","1","0","1","0","0","0","2","1","0","0","1","0","1","0","0","1","3","3","0","0","0","4","0","0","4","4","4","0","3","4","4","4","0","4","693.4000000357628","","e","","true","0","29","down","up","2","e","1","0","1658956904287","","","false","60","29","0.23333333333333334","1","false"
"","html-keyboard-response","143","333435","0.0-6.0-1.30-0.30","014 ","37","f","1658956570934","q","q","Only if I get the answer right","Nothing","A fixed time limit","4","female","No","Much faster/harder than expected!","3","1","0","1","1","0","0","1","0","0","1","1","0","0","0","0","1","0","1","0","0","3","2","1","1","0","1","0","0","1","0","1","0","0","0","2","1","0","0","1","0","1","0","0","1","3","3","0","0","0","4","0","0","4","4","4","0","3","4","4","4","0","4","684","<div style=""color:green; font-size:75px;""><b>$1.00</b></div><br><br><br><br><table><tr><td><img src=static/images/oddball_down.png></td><td><img src=static/images/oddball_up.png></td><td><img src=static/images/oddball_down.png></td></tr></table>","87","1","","","","","","","","","","","","","","","","","",""
"","html-keyboard-response","144","333438","0.0-6.0-1.30-1.30","014 ","37","f","1658956570934","q","q","Only if I get the answer right","Nothing","A fixed time limit","4","female","No","Much faster/harder than expected!","3","1","0","1","1","0","0","1","0","0","1","1","0","0","0","0","1","0","1","0","0","3","2","1","1","0","1","0","0","1","0","1","0","0","0","2","1","0","0","1","0","1","0","0","1","3","3","0","0","0","4","0","0","4","4","4","0","3","4","4","4","0","4","684","","w","","true","0","30","down","up","1","w","1","0","1658956904975","","","false","60","30","0.25","1","false"
"","html-keyboard-response","145","334195","0.0-6.0-1.31-0.31","014 ","37","f","1658956570934","q","q","Only if I get the answer right","Nothing","A fixed time limit","4","female","No","Much faster/harder than expected!","3","1","0","1","1","0","0","1","0","0","1","1","0","0","0","0","1","0","1","0","0","3","2","1","1","0","1","0","0","1","0","1","0","0","0","2","1","0","0","1","0","1","0","0","1","3","3","0","0","0","4","0","0","4","4","4","0","3","4","4","4","0","4","null","<div style=""color:green; font-size:75px;""><b>$1.00</b></div><br><br><br><br><table><tr><td><img src=static/images/oddball_down.png></td><td><img src=static/images/oddball_up.png></td><td><img src=static/images/oddball_down.png></td></tr></table>","null","","","","","","","","","","","","","","","","","","",""
"","html-keyboard-response","146","334198","0.0-6.0-1.31-1.31","014 ","37","f","1658956570934","q","q","Only if I get the answer right","Nothing","A fixed time limit","4","female","No","Much faster/harder than expected!","3","1","0","1","1","0","0","1","0","0","1","1","0","0","0","0","1","0","1","0","0","3","2","1","1","0","1","0","0","1","0","1","0","0","0","2","1","0","0","1","0","1","0","0","1","3","3","0","0","0","4","0","0","4","4","4","0","3","4","4","4","0","4","null","","null","","true","0","31","down","up","1","w","0","0","1658956905735","","","false","60","31","0.26666666666666666","1","true"
"","html-keyboard-response","147","334796","0.0-6.0-1.32-0.32","014 ","37","f","1658956570934","q","q","Only if I get the answer right","Nothing","A fixed time limit","4","female","No","Much faster/harder than expected!","3","1","0","1","1","0","0","1","0","0","1","1","0","0","0","0","1","0","1","0","0","3","2","1","1","0","1","0","0","1","0","1","0","0","0","2","1","0","0","1","0","1","0","0","1","3","3","0","0","0","4","0","0","4","4","4","0","3","4","4","4","0","4","596","<div style=""color:green; font-size:75px;""><b>$1.00</b></div><br><br><br><br><table><tr><td><img src=static/images/oddball_down.png></td><td><img src=static/images/oddball_up.png></td><td><img src=static/images/oddball_down.png></td></tr></table>","87","1","","","","","","","","","","","","","","","","","",""
"","html-keyboard-response","148","334798","0.0-6.0-1.32-1.32","014 ","37","f","1658956570934","q","q","Only if I get the answer right","Nothing","A fixed time limit","4","female","No","Much faster/harder than expected!","3","1","0","1","1","0","0","1","0","0","1","1","0","0","0","0","1","0","1","0","0","3","2","1","1","0","1","0","0","1","0","1","0","0","0","2","1","0","0","1","0","1","0","0","1","3","3","0","0","0","4","0","0","4","4","4","0","3","4","4","4","0","4","596","","w","","true","0","32","down","up","1","w","1","0","1658956906335","","","false","60","32","0.26666666666666666","1","false"
