"success","trial_type","trial_index","time_elapsed","internal_node_id","subject","age","sex","date","instQ1","instQ2","instQ3","instQ4","instQ5","totalInstQ","gender","strategy","comments","DASS1_s","DASS2_a","DASS3_d","DASS4_a","DASS5_d","DASS6_s","DASS7_a","DASS8_s","DASS9_a","DASS10_d","DASS11_s","DASS12_s","DASS13_d","DASS14_s","DASS15_a","DASS16_d","DASS17_d","DASS18_s","DASS19_a","DASS20_a","DASS21_d","BB1","BB2","BB3","BB4","BB5","BB6","BB7","BB8","BB9","BB10","BB11","BB12","BB13","BB14","BB15","BB16","BB17","BB18","BB19","BB20","BB21","BB22","BB23","BB24","NFC1","NFC2","NFC3","NFC4","NFC5","NFC6","NFC7","NFC8","NFC9","NFC10","NFC11","NFC12","NFC13","NFC14","NFC15","NFC16","NFC17","NFC18","rt","stimulus","key_press","npress","isDataTrial","block","trialinblock","common","odd","oddidx","correct_ans","accuracy","totalTokens","timestamp","responses","question_order","showprog","blocklen","trial","progress","reward","timedout"
"true","fullscreen","0","3578","0.0-0.0","037","24","F","1659723270714","q","q","Only if I get the answer right","You win money","A fixed time limit","5","female","A little","It was so fast at the first round, but later I felt good. I felt I did better than first several rounds.","1","1","0","0","0","0","0","0","0","0","1","0","0","0","0","0","0","0","0","0","0","1","1","1","0","0","1","0","2","1","1","3","0","2","0","2","1","1","0","1","1","2","1","1","2","1","1","2","3","1","3","2","3","3","1","2","0","1","3","3","3","1","2","","","","","","","","","","","","","","","","","","","","","",""
"","image-keyboard-response","1","91696","0.0-1.0-0.0","037","24","F","1659723270714","q","q","Only if I get the answer right","You win money","A fixed time limit","5","female","A little","It was so fast at the first round, but later I felt good. I felt I did better than first several rounds.","1","1","0","0","0","0","0","0","0","0","1","0","0","0","0","0","0","0","0","0","0","1","1","1","0","0","1","0","2","1","1","3","0","2","0","2","1","1","0","1","1","2","1","1","2","1","1","2","3","1","3","2","3","3","1","2","0","1","3","3","3","1","2","88104.5","static/images/instructions/Slide1.png","39","","","","","","","","","","","","","","","","","","",""
"","image-keyboard-response","2","107141","0.0-1.1-0.1","037","24","F","1659723270714","q","q","Only if I get the answer right","You win money","A fixed time limit","5","female","A little","It was so fast at the first round, but later I felt good. I felt I did better than first several rounds.","1","1","0","0","0","0","0","0","0","0","1","0","0","0","0","0","0","0","0","0","0","1","1","1","0","0","1","0","2","1","1","3","0","2","0","2","1","1","0","1","1","2","1","1","2","1","1","2","3","1","3","2","3","3","1","2","0","1","3","3","3","1","2","15443.700000047684","static/images/instructions/Slide2.png","39","","","","","","","","","","","","","","","","","","",""
"","image-keyboard-response","3","117965","0.0-1.2-0.2","037","24","F","1659723270714","q","q","Only if I get the answer right","You win money","A fixed time limit","5","female","A little","It was so fast at the first round, but later I felt good. I felt I did better than first several rounds.","1","1","0","0","0","0","0","0","0","0","1","0","0","0","0","0","0","0","0","0","0","1","1","1","0","0","1","0","2","1","1","3","0","2","0","2","1","1","0","1","1","2","1","1","2","1","1","2","3","1","3","2","3","3","1","2","0","1","3","3","3","1","2","10823","static/images/instructions/Slide3.png","39","","","","","","","","","","","","","","","","","","",""
"","image-keyboard-response","4","127157","0.0-1.3-0.3","037","24","F","1659723270714","q","q","Only if I get the answer right","You win money","A fixed time limit","5","female","A little","It was so fast at the first round, but later I felt good. I felt I did better than first several rounds.","1","1","0","0","0","0","0","0","0","0","1","0","0","0","0","0","0","0","0","0","0","1","1","1","0","0","1","0","2","1","1","3","0","2","0","2","1","1","0","1","1","2","1","1","2","1","1","2","3","1","3","2","3","3","1","2","0","1","3","3","3","1","2","9191.5","static/images/instructions/Slide4.png","39","","","","","","","","","","","","","","","","","","",""
"","image-keyboard-response","5","139253","0.0-1.4-0.4","037","24","F","1659723270714","q","q","Only if I get the answer right","You win money","A fixed time limit","5","female","A little","It was so fast at the first round, but later I felt good. I felt I did better than first several rounds.","1","1","0","0","0","0","0","0","0","0","1","0","0","0","0","0","0","0","0","0","0","1","1","1","0","0","1","0","2","1","1","3","0","2","0","2","1","1","0","1","1","2","1","1","2","1","1","2","3","1","3","2","3","3","1","2","0","1","3","3","3","1","2","12095","static/images/instructions/Slide5.png","39","","","","","","","","","","","","","","","","","","",""
"","image-keyboard-response","6","143853","0.0-1.5-0.5","037","24","F","1659723270714","q","q","Only if I get the answer right","You win money","A fixed time limit","5","female","A little","It was so fast at the first round, but later I felt good. I felt I did better than first several rounds.","1","1","0","0","0","0","0","0","0","0","1","0","0","0","0","0","0","0","0","0","0","1","1","1","0","0","1","0","2","1","1","3","0","2","0","2","1","1","0","1","1","2","1","1","2","1","1","2","3","1","3","2","3","3","1","2","0","1","3","3","3","1","2","4599.800000011921","static/images/instructions/Slide6.png","39","","","","","","","","","","","","","","","","","","",""
"","image-keyboard-response","7","167863","0.0-1.6-0.6","037","24","F","1659723270714","q","q","Only if I get the answer right","You win money","A fixed time limit","5","female","A little","It was so fast at the first round, but later I felt good. I felt I did better than first several rounds.","1","1","0","0","0","0","0","0","0","0","1","0","0","0","0","0","0","0","0","0","0","1","1","1","0","0","1","0","2","1","1","3","0","2","0","2","1","1","0","1","1","2","1","1","2","1","1","2","3","1","3","2","3","3","1","2","0","1","3","3","3","1","2","24023.30000001192","static/images/instructions/Slide7.png","39","","","","","","","","","","","","","","","","","","",""
"","html-keyboard-response","8","169087","0.0-2.0-0.0","037","24","F","1659723270714","q","q","Only if I get the answer right","You win money","A fixed time limit","5","female","A little","It was so fast at the first round, but later I felt good. I felt I did better than first several rounds.","1","1","0","0","0","0","0","0","0","0","1","0","0","0","0","0","0","0","0","0","0","1","1","1","0","0","1","0","2","1","1","3","0","2","0","2","1","1","0","1","1","2","1","1","2","1","1","2","3","1","3","2","3","3","1","2","0","1","3","3","3","1","2","1222.9000000357628","<br><br><br><br><table><tr><td><img src=static/images/oddball_up.png></td><td><img src=static/images/oddball_up.png></td><td><img src=static/images/oddball_down.png></td></tr></table>","69","1","","","","","","","","","","","","","","","","","",""
"","html-keyboard-response","9","171600","0.0-2.0-1.0","037","24","F","1659723270714","q","q","Only if I get the answer right","You win money","A fixed time limit","5","female","A little","It was so fast at the first round, but later I felt good. I felt I did better than first several rounds.","1","1","0","0","0","0","0","0","0","0","1","0","0","0","0","0","0","0","0","0","0","1","1","1","0","0","1","0","2","1","1","3","0","2","0","2","1","1","0","1","1","2","1","1","2","1","1","2","3","1","3","2","3","3","1","2","0","1","3","3","3","1","2","null","<div style=""font-size:75px;""><b>Correct</b></div>","null","","","","","","","","","","","","","","","","","","",""
"","html-keyboard-response","10","172605","0.0-2.0-2.0","037","24","F","1659723270714","q","q","Only if I get the answer right","You win money","A fixed time limit","5","female","A little","It was so fast at the first round, but later I felt good. I felt I did better than first several rounds.","1","1","0","0","0","0","0","0","0","0","1","0","0","0","0","0","0","0","0","0","0","1","1","1","0","0","1","0","2","1","1","3","0","2","0","2","1","1","0","1","1","2","1","1","2","1","1","2","3","1","3","2","3","3","1","2","0","1","3","3","3","1","2","1222.9000000357628","","e","","true","practice","0","up","down","2","e","1","0","1659723443570","","","","","","","",""
"","html-keyboard-response","11","174159","0.0-2.1-0.1","037","24","F","1659723270714","q","q","Only if I get the answer right","You win money","A fixed time limit","5","female","A little","It was so fast at the first round, but later I felt good. I felt I did better than first several rounds.","1","1","0","0","0","0","0","0","0","0","1","0","0","0","0","0","0","0","0","0","0","1","1","1","0","0","1","0","2","1","1","3","0","2","0","2","1","1","0","1","1","2","1","1","2","1","1","2","3","1","3","2","3","3","1","2","0","1","3","3","3","1","2","1553.300000011921","<br><br><br><br><table><tr><td><img src=static/images/oddball_down.png></td><td><img src=static/images/oddball_up.png></td><td><img src=static/images/oddball_down.png></td></tr></table>","87","1","","","","","","","","","","","","","","","","","",""
"","html-keyboard-response","12","176672","0.0-2.1-1.1","037","24","F","1659723270714","q","q","Only if I get the answer right","You win money","A fixed time limit","5","female","A little","It was so fast at the first round, but later I felt good. I felt I did better than first several rounds.","1","1","0","0","0","0","0","0","0","0","1","0","0","0","0","0","0","0","0","0","0","1","1","1","0","0","1","0","2","1","1","3","0","2","0","2","1","1","0","1","1","2","1","1","2","1","1","2","3","1","3","2","3","3","1","2","0","1","3","3","3","1","2","null","<div style=""font-size:75px;""><b>Correct</b></div>","null","","","","","","","","","","","","","","","","","","",""
"","html-keyboard-response","13","177680","0.0-2.1-2.1","037","24","F","1659723270714","q","q","Only if I get the answer right","You win money","A fixed time limit","5","female","A little","It was so fast at the first round, but later I felt good. I felt I did better than first several rounds.","1","1","0","0","0","0","0","0","0","0","1","0","0","0","0","0","0","0","0","0","0","1","1","1","0","0","1","0","2","1","1","3","0","2","0","2","1","1","0","1","1","2","1","1","2","1","1","2","3","1","3","2","3","3","1","2","0","1","3","3","3","1","2","1553.300000011921","","w","","true","practice","1","down","up","1","w","1","0","1659723448645","","","","","","","",""
"","html-keyboard-response","14","178855","0.0-2.2-0.2","037","24","F","1659723270714","q","q","Only if I get the answer right","You win money","A fixed time limit","5","female","A little","It was so fast at the first round, but later I felt good. I felt I did better than first several rounds.","1","1","0","0","0","0","0","0","0","0","1","0","0","0","0","0","0","0","0","0","0","1","1","1","0","0","1","0","2","1","1","3","0","2","0","2","1","1","0","1","1","2","1","1","2","1","1","2","3","1","3","2","3","3","1","2","0","1","3","3","3","1","2","1174.199999988079","<br><br><br><br><table><tr><td><img src=static/images/oddball_up.png></td><td><img src=static/images/oddball_down.png></td><td><img src=static/images/oddball_up.png></td></tr></table>","87","1","","","","","","","","","","","","","","","","","",""
"","html-keyboard-response","15","181364","0.0-2.2-1.2","037","24","F","1659723270714","q","q","Only if I get the answer right","You win money","A fixed time limit","5","female","A little","It was so fast at the first round, but later I felt good. I felt I did better than first several rounds.","1","1","0","0","0","0","0","0","0","0","1","0","0","0","0","0","0","0","0","0","0","1","1","1","0","0","1","0","2","1","1","3","0","2","0","2","1","1","0","1","1","2","1","1","2","1","1","2","3","1","3","2","3","3","1","2","0","1","3","3","3","1","2","null","<div style=""font-size:75px;""><b>Correct</b></div>","null","","","","","","","","","","","","","","","","","","",""
"","html-keyboard-response","16","182370","0.0-2.2-2.2","037","24","F","1659723270714","q","q","Only if I get the answer right","You win money","A fixed time limit","5","female","A little","It was so fast at the first round, but later I felt good. I felt I did better than first several rounds.","1","1","0","0","0","0","0","0","0","0","1","0","0","0","0","0","0","0","0","0","0","1","1","1","0","0","1","0","2","1","1","3","0","2","0","2","1","1","0","1","1","2","1","1","2","1","1","2","3","1","3","2","3","3","1","2","0","1","3","3","3","1","2","1174.199999988079","","w","","true","practice","2","up","down","1","w","1","0","1659723453336","","","","","","","",""
"","html-keyboard-response","17","184279","0.0-2.3-0.3","037","24","F","1659723270714","q","q","Only if I get the answer right","You win money","A fixed time limit","5","female","A little","It was so fast at the first round, but later I felt good. I felt I did better than first several rounds.","1","1","0","0","0","0","0","0","0","0","1","0","0","0","0","0","0","0","0","0","0","1","1","1","0","0","1","0","2","1","1","3","0","2","0","2","1","1","0","1","1","2","1","1","2","1","1","2","3","1","3","2","3","3","1","2","0","1","3","3","3","1","2","1907.5","<br><br><br><br><table><tr><td><img src=static/images/oddball_up.png></td><td><img src=static/images/oddball_down.png></td><td><img src=static/images/oddball_up.png></td></tr></table>","87","1","","","","","","","","","","","","","","","","","",""
"","html-keyboard-response","18","186791","0.0-2.3-1.3","037","24","F","1659723270714","q","q","Only if I get the answer right","You win money","A fixed time limit","5","female","A little","It was so fast at the first round, but later I felt good. I felt I did better than first several rounds.","1","1","0","0","0","0","0","0","0","0","1","0","0","0","0","0","0","0","0","0","0","1","1","1","0","0","1","0","2","1","1","3","0","2","0","2","1","1","0","1","1","2","1","1","2","1","1","2","3","1","3","2","3","3","1","2","0","1","3","3","3","1","2","null","<div style=""font-size:75px;""><b>Correct</b></div>","null","","","","","","","","","","","","","","","","","","",""
"","html-keyboard-response","19","187798","0.0-2.3-2.3","037","24","F","1659723270714","q","q","Only if I get the answer right","You win money","A fixed time limit","5","female","A little","It was so fast at the first round, but later I felt good. I felt I did better than first several rounds.","1","1","0","0","0","0","0","0","0","0","1","0","0","0","0","0","0","0","0","0","0","1","1","1","0","0","1","0","2","1","1","3","0","2","0","2","1","1","0","1","1","2","1","1","2","1","1","2","3","1","3","2","3","3","1","2","0","1","3","3","3","1","2","1907.5","","w","","true","practice","3","up","down","1","w","1","0","1659723458763","","","","","","","",""
"","html-keyboard-response","20","188711","0.0-2.4-0.4","037","24","F","1659723270714","q","q","Only if I get the answer right","You win money","A fixed time limit","5","female","A little","It was so fast at the first round, but later I felt good. I felt I did better than first several rounds.","1","1","0","0","0","0","0","0","0","0","1","0","0","0","0","0","0","0","0","0","0","1","1","1","0","0","1","0","2","1","1","3","0","2","0","2","1","1","0","1","1","2","1","1","2","1","1","2","3","1","3","2","3","3","1","2","0","1","3","3","3","1","2","912.1999999880791","<br><br><br><br><table><tr><td><img src=static/images/oddball_up.png></td><td><img src=static/images/oddball_up.png></td><td><img src=static/images/oddball_down.png></td></tr></table>","69","1","","","","","","","","","","","","","","","","","",""
"","html-keyboard-response","21","191217","0.0-2.4-1.4","037","24","F","1659723270714","q","q","Only if I get the answer right","You win money","A fixed time limit","5","female","A little","It was so fast at the first round, but later I felt good. I felt I did better than first several rounds.","1","1","0","0","0","0","0","0","0","0","1","0","0","0","0","0","0","0","0","0","0","1","1","1","0","0","1","0","2","1","1","3","0","2","0","2","1","1","0","1","1","2","1","1","2","1","1","2","3","1","3","2","3","3","1","2","0","1","3","3","3","1","2","null","<div style=""font-size:75px;""><b>Correct</b></div>","null","","","","","","","","","","","","","","","","","","",""
"","html-keyboard-response","22","192224","0.0-2.4-2.4","037","24","F","1659723270714","q","q","Only if I get the answer right","You win money","A fixed time limit","5","female","A little","It was so fast at the first round, but later I felt good. I felt I did better than first several rounds.","1","1","0","0","0","0","0","0","0","0","1","0","0","0","0","0","0","0","0","0","0","1","1","1","0","0","1","0","2","1","1","3","0","2","0","2","1","1","0","1","1","2","1","1","2","1","1","2","3","1","3","2","3","3","1","2","0","1","3","3","3","1","2","912.1999999880791","","e","","true","practice","4","up","down","2","e","1","0","1659723463189","","","","","","","",""
"","html-keyboard-response","23","193615","0.0-2.5-0.5","037","24","F","1659723270714","q","q","Only if I get the answer right","You win money","A fixed time limit","5","female","A little","It was so fast at the first round, but later I felt good. I felt I did better than first several rounds.","1","1","0","0","0","0","0","0","0","0","1","0","0","0","0","0","0","0","0","0","0","1","1","1","0","0","1","0","2","1","1","3","0","2","0","2","1","1","0","1","1","2","1","1","2","1","1","2","3","1","3","2","3","3","1","2","0","1","3","3","3","1","2","1390.1000000238419","<br><br><br><br><table><tr><td><img src=static/images/oddball_down.png></td><td><img src=static/images/oddball_up.png></td><td><img src=static/images/oddball_down.png></td></tr></table>","87","1","","","","","","","","","","","","","","","","","",""
"","html-keyboard-response","24","196131","0.0-2.5-1.5","037","24","F","1659723270714","q","q","Only if I get the answer right","You win money","A fixed time limit","5","female","A little","It was so fast at the first round, but later I felt good. I felt I did better than first several rounds.","1","1","0","0","0","0","0","0","0","0","1","0","0","0","0","0","0","0","0","0","0","1","1","1","0","0","1","0","2","1","1","3","0","2","0","2","1","1","0","1","1","2","1","1","2","1","1","2","3","1","3","2","3","3","1","2","0","1","3","3","3","1","2","null","<div style=""font-size:75px;""><b>Correct</b></div>","null","","","","","","","","","","","","","","","","","","",""
"","html-keyboard-response","25","197149","0.0-2.5-2.5","037","24","F","1659723270714","q","q","Only if I get the answer right","You win money","A fixed time limit","5","female","A little","It was so fast at the first round, but later I felt good. I felt I did better than first several rounds.","1","1","0","0","0","0","0","0","0","0","1","0","0","0","0","0","0","0","0","0","0","1","1","1","0","0","1","0","2","1","1","3","0","2","0","2","1","1","0","1","1","2","1","1","2","1","1","2","3","1","3","2","3","3","1","2","0","1","3","3","3","1","2","1390.1000000238419","","w","","true","practice","5","down","up","1","w","1","0","1659723468114","","","","","","","",""
"","html-keyboard-response","26","197982","0.0-2.6-0.6","037","24","F","1659723270714","q","q","Only if I get the answer right","You win money","A fixed time limit","5","female","A little","It was so fast at the first round, but later I felt good. I felt I did better than first several rounds.","1","1","0","0","0","0","0","0","0","0","1","0","0","0","0","0","0","0","0","0","0","1","1","1","0","0","1","0","2","1","1","3","0","2","0","2","1","1","0","1","1","2","1","1","2","1","1","2","3","1","3","2","3","3","1","2","0","1","3","3","3","1","2","832.6999999880791","<br><br><br><br><table><tr><td><img src=static/images/oddball_up.png></td><td><img src=static/images/oddball_up.png></td><td><img src=static/images/oddball_down.png></td></tr></table>","69","1","","","","","","","","","","","","","","","","","",""
"","html-keyboard-response","27","200484","0.0-2.6-1.6","037","24","F","1659723270714","q","q","Only if I get the answer right","You win money","A fixed time limit","5","female","A little","It was so fast at the first round, but later I felt good. I felt I did better than first several rounds.","1","1","0","0","0","0","0","0","0","0","1","0","0","0","0","0","0","0","0","0","0","1","1","1","0","0","1","0","2","1","1","3","0","2","0","2","1","1","0","1","1","2","1","1","2","1","1","2","3","1","3","2","3","3","1","2","0","1","3","3","3","1","2","null","<div style=""font-size:75px;""><b>Correct</b></div>","null","","","","","","","","","","","","","","","","","","",""
"","html-keyboard-response","28","201491","0.0-2.6-2.6","037","24","F","1659723270714","q","q","Only if I get the answer right","You win money","A fixed time limit","5","female","A little","It was so fast at the first round, but later I felt good. I felt I did better than first several rounds.","1","1","0","0","0","0","0","0","0","0","1","0","0","0","0","0","0","0","0","0","0","1","1","1","0","0","1","0","2","1","1","3","0","2","0","2","1","1","0","1","1","2","1","1","2","1","1","2","3","1","3","2","3","3","1","2","0","1","3","3","3","1","2","832.6999999880791","","e","","true","practice","6","up","down","2","e","1","0","1659723472456","","","","","","","",""
"","html-keyboard-response","29","202974","0.0-2.7-0.7","037","24","F","1659723270714","q","q","Only if I get the answer right","You win money","A fixed time limit","5","female","A little","It was so fast at the first round, but later I felt good. I felt I did better than first several rounds.","1","1","0","0","0","0","0","0","0","0","1","0","0","0","0","0","0","0","0","0","0","1","1","1","0","0","1","0","2","1","1","3","0","2","0","2","1","1","0","1","1","2","1","1","2","1","1","2","3","1","3","2","3","3","1","2","0","1","3","3","3","1","2","1482.5999999642372","<br><br><br><br><table><tr><td><img src=static/images/oddball_up.png></td><td><img src=static/images/oddball_down.png></td><td><img src=static/images/oddball_up.png></td></tr></table>","87","1","","","","","","","","","","","","","","","","","",""
"","html-keyboard-response","30","205478","0.0-2.7-1.7","037","24","F","1659723270714","q","q","Only if I get the answer right","You win money","A fixed time limit","5","female","A little","It was so fast at the first round, but later I felt good. I felt I did better than first several rounds.","1","1","0","0","0","0","0","0","0","0","1","0","0","0","0","0","0","0","0","0","0","1","1","1","0","0","1","0","2","1","1","3","0","2","0","2","1","1","0","1","1","2","1","1","2","1","1","2","3","1","3","2","3","3","1","2","0","1","3","3","3","1","2","null","<div style=""font-size:75px;""><b>Correct</b></div>","null","","","","","","","","","","","","","","","","","","",""
"","html-keyboard-response","31","206484","0.0-2.7-2.7","037","24","F","1659723270714","q","q","Only if I get the answer right","You win money","A fixed time limit","5","female","A little","It was so fast at the first round, but later I felt good. I felt I did better than first several rounds.","1","1","0","0","0","0","0","0","0","0","1","0","0","0","0","0","0","0","0","0","0","1","1","1","0","0","1","0","2","1","1","3","0","2","0","2","1","1","0","1","1","2","1","1","2","1","1","2","3","1","3","2","3","3","1","2","0","1","3","3","3","1","2","1482.5999999642372","","w","","true","practice","7","up","down","1","w","1","0","1659723477449","","","","","","","",""
"","html-keyboard-response","32","207399","0.0-2.8-0.8","037","24","F","1659723270714","q","q","Only if I get the answer right","You win money","A fixed time limit","5","female","A little","It was so fast at the first round, but later I felt good. I felt I did better than first several rounds.","1","1","0","0","0","0","0","0","0","0","1","0","0","0","0","0","0","0","0","0","0","1","1","1","0","0","1","0","2","1","1","3","0","2","0","2","1","1","0","1","1","2","1","1","2","1","1","2","3","1","3","2","3","3","1","2","0","1","3","3","3","1","2","914","<br><br><br><br><table><tr><td><img src=static/images/oddball_down.png></td><td><img src=static/images/oddball_down.png></td><td><img src=static/images/oddball_up.png></td></tr></table>","69","1","","","","","","","","","","","","","","","","","",""
"","html-keyboard-response","33","209902","0.0-2.8-1.8","037","24","F","1659723270714","q","q","Only if I get the answer right","You win money","A fixed time limit","5","female","A little","It was so fast at the first round, but later I felt good. I felt I did better than first several rounds.","1","1","0","0","0","0","0","0","0","0","1","0","0","0","0","0","0","0","0","0","0","1","1","1","0","0","1","0","2","1","1","3","0","2","0","2","1","1","0","1","1","2","1","1","2","1","1","2","3","1","3","2","3","3","1","2","0","1","3","3","3","1","2","null","<div style=""font-size:75px;""><b>Correct</b></div>","null","","","","","","","","","","","","","","","","","","",""
"","html-keyboard-response","34","210909","0.0-2.8-2.8","037","24","F","1659723270714","q","q","Only if I get the answer right","You win money","A fixed time limit","5","female","A little","It was so fast at the first round, but later I felt good. I felt I did better than first several rounds.","1","1","0","0","0","0","0","0","0","0","1","0","0","0","0","0","0","0","0","0","0","1","1","1","0","0","1","0","2","1","1","3","0","2","0","2","1","1","0","1","1","2","1","1","2","1","1","2","3","1","3","2","3","3","1","2","0","1","3","3","3","1","2","914","","e","","true","practice","8","down","up","2","e","1","0","1659723481874","","","","","","","",""
"","html-keyboard-response","35","211847","0.0-2.9-0.9","037","24","F","1659723270714","q","q","Only if I get the answer right","You win money","A fixed time limit","5","female","A little","It was so fast at the first round, but later I felt good. I felt I did better than first several rounds.","1","1","0","0","0","0","0","0","0","0","1","0","0","0","0","0","0","0","0","0","0","1","1","1","0","0","1","0","2","1","1","3","0","2","0","2","1","1","0","1","1","2","1","1","2","1","1","2","3","1","3","2","3","3","1","2","0","1","3","3","3","1","2","937.3000000119209","<br><br><br><br><table><tr><td><img src=static/images/oddball_down.png></td><td><img src=static/images/oddball_down.png></td><td><img src=static/images/oddball_up.png></td></tr></table>","69","1","","","","","","","","","","","","","","","","","",""
"","html-keyboard-response","36","214359","0.0-2.9-1.9","037","24","F","1659723270714","q","q","Only if I get the answer right","You win money","A fixed time limit","5","female","A little","It was so fast at the first round, but later I felt good. I felt I did better than first several rounds.","1","1","0","0","0","0","0","0","0","0","1","0","0","0","0","0","0","0","0","0","0","1","1","1","0","0","1","0","2","1","1","3","0","2","0","2","1","1","0","1","1","2","1","1","2","1","1","2","3","1","3","2","3","3","1","2","0","1","3","3","3","1","2","null","<div style=""font-size:75px;""><b>Correct</b></div>","null","","","","","","","","","","","","","","","","","","",""
"","html-keyboard-response","37","215366","0.0-2.9-2.9","037","24","F","1659723270714","q","q","Only if I get the answer right","You win money","A fixed time limit","5","female","A little","It was so fast at the first round, but later I felt good. I felt I did better than first several rounds.","1","1","0","0","0","0","0","0","0","0","1","0","0","0","0","0","0","0","0","0","0","1","1","1","0","0","1","0","2","1","1","3","0","2","0","2","1","1","0","1","1","2","1","1","2","1","1","2","3","1","3","2","3","3","1","2","0","1","3","3","3","1","2","937.3000000119209","","e","","true","practice","9","down","up","2","e","1","0","1659723486331","","","","","","","",""
"","html-keyboard-response","38","216607","0.0-2.10-0.10","037","24","F","1659723270714","q","q","Only if I get the answer right","You win money","A fixed time limit","5","female","A little","It was so fast at the first round, but later I felt good. I felt I did better than first several rounds.","1","1","0","0","0","0","0","0","0","0","1","0","0","0","0","0","0","0","0","0","0","1","1","1","0","0","1","0","2","1","1","3","0","2","0","2","1","1","0","1","1","2","1","1","2","1","1","2","3","1","3","2","3","3","1","2","0","1","3","3","3","1","2","1240.3999999761581","<br><br><br><br><table><tr><td><img src=static/images/oddball_up.png></td><td><img src=static/images/oddball_down.png></td><td><img src=static/images/oddball_up.png></td></tr></table>","87","1","","","","","","","","","","","","","","","","","",""
"","html-keyboard-response","39","219119","0.0-2.10-1.10","037","24","F","1659723270714","q","q","Only if I get the answer right","You win money","A fixed time limit","5","female","A little","It was so fast at the first round, but later I felt good. I felt I did better than first several rounds.","1","1","0","0","0","0","0","0","0","0","1","0","0","0","0","0","0","0","0","0","0","1","1","1","0","0","1","0","2","1","1","3","0","2","0","2","1","1","0","1","1","2","1","1","2","1","1","2","3","1","3","2","3","3","1","2","0","1","3","3","3","1","2","null","<div style=""font-size:75px;""><b>Correct</b></div>","null","","","","","","","","","","","","","","","","","","",""
"","html-keyboard-response","40","220126","0.0-2.10-2.10","037","24","F","1659723270714","q","q","Only if I get the answer right","You win money","A fixed time limit","5","female","A little","It was so fast at the first round, but later I felt good. I felt I did better than first several rounds.","1","1","0","0","0","0","0","0","0","0","1","0","0","0","0","0","0","0","0","0","0","1","1","1","0","0","1","0","2","1","1","3","0","2","0","2","1","1","0","1","1","2","1","1","2","1","1","2","3","1","3","2","3","3","1","2","0","1","3","3","3","1","2","1240.3999999761581","","w","","true","practice","10","up","down","1","w","1","0","1659723491091","","","","","","","",""
"","html-keyboard-response","41","220751","0.0-2.11-0.11","037","24","F","1659723270714","q","q","Only if I get the answer right","You win money","A fixed time limit","5","female","A little","It was so fast at the first round, but later I felt good. I felt I did better than first several rounds.","1","1","0","0","0","0","0","0","0","0","1","0","0","0","0","0","0","0","0","0","0","1","1","1","0","0","1","0","2","1","1","3","0","2","0","2","1","1","0","1","1","2","1","1","2","1","1","2","3","1","3","2","3","3","1","2","0","1","3","3","3","1","2","623.6999999880791","<br><br><br><br><table><tr><td><img src=static/images/oddball_down.png></td><td><img src=static/images/oddball_up.png></td><td><img src=static/images/oddball_up.png></td></tr></table>","81","1","","","","","","","","","","","","","","","","","",""
"","html-keyboard-response","42","223259","0.0-2.11-1.11","037","24","F","1659723270714","q","q","Only if I get the answer right","You win money","A fixed time limit","5","female","A little","It was so fast at the first round, but later I felt good. I felt I did better than first several rounds.","1","1","0","0","0","0","0","0","0","0","1","0","0","0","0","0","0","0","0","0","0","1","1","1","0","0","1","0","2","1","1","3","0","2","0","2","1","1","0","1","1","2","1","1","2","1","1","2","3","1","3","2","3","3","1","2","0","1","3","3","3","1","2","null","<div style=""font-size:75px;""><b>Correct</b></div>","null","","","","","","","","","","","","","","","","","","",""
"","html-keyboard-response","43","224266","0.0-2.11-2.11","037","24","F","1659723270714","q","q","Only if I get the answer right","You win money","A fixed time limit","5","female","A little","It was so fast at the first round, but later I felt good. I felt I did better than first several rounds.","1","1","0","0","0","0","0","0","0","0","1","0","0","0","0","0","0","0","0","0","0","1","1","1","0","0","1","0","2","1","1","3","0","2","0","2","1","1","0","1","1","2","1","1","2","1","1","2","3","1","3","2","3","3","1","2","0","1","3","3","3","1","2","623.6999999880791","","q","","true","practice","11","up","down","0","q","1","0","1659723495231","","","","","","","",""
"","html-keyboard-response","44","224991","0.0-2.12-0.12","037","24","F","1659723270714","q","q","Only if I get the answer right","You win money","A fixed time limit","5","female","A little","It was so fast at the first round, but later I felt good. I felt I did better than first several rounds.","1","1","0","0","0","0","0","0","0","0","1","0","0","0","0","0","0","0","0","0","0","1","1","1","0","0","1","0","2","1","1","3","0","2","0","2","1","1","0","1","1","2","1","1","2","1","1","2","3","1","3","2","3","3","1","2","0","1","3","3","3","1","2","723.7999999523163","<br><br><br><br><table><tr><td><img src=static/images/oddball_up.png></td><td><img src=static/images/oddball_up.png></td><td><img src=static/images/oddball_down.png></td></tr></table>","69","1","","","","","","","","","","","","","","","","","",""
"","html-keyboard-response","45","227501","0.0-2.12-1.12","037","24","F","1659723270714","q","q","Only if I get the answer right","You win money","A fixed time limit","5","female","A little","It was so fast at the first round, but later I felt good. I felt I did better than first several rounds.","1","1","0","0","0","0","0","0","0","0","1","0","0","0","0","0","0","0","0","0","0","1","1","1","0","0","1","0","2","1","1","3","0","2","0","2","1","1","0","1","1","2","1","1","2","1","1","2","3","1","3","2","3","3","1","2","0","1","3","3","3","1","2","null","<div style=""font-size:75px;""><b>Correct</b></div>","null","","","","","","","","","","","","","","","","","","",""
"","html-keyboard-response","46","228521","0.0-2.12-2.12","037","24","F","1659723270714","q","q","Only if I get the answer right","You win money","A fixed time limit","5","female","A little","It was so fast at the first round, but later I felt good. I felt I did better than first several rounds.","1","1","0","0","0","0","0","0","0","0","1","0","0","0","0","0","0","0","0","0","0","1","1","1","0","0","1","0","2","1","1","3","0","2","0","2","1","1","0","1","1","2","1","1","2","1","1","2","3","1","3","2","3","3","1","2","0","1","3","3","3","1","2","723.7999999523163","","e","","true","practice","12","up","down","2","e","1","0","1659723499486","","","","","","","",""
"","html-keyboard-response","47","229444","0.0-2.13-0.13","037","24","F","1659723270714","q","q","Only if I get the answer right","You win money","A fixed time limit","5","female","A little","It was so fast at the first round, but later I felt good. I felt I did better than first several rounds.","1","1","0","0","0","0","0","0","0","0","1","0","0","0","0","0","0","0","0","0","0","1","1","1","0","0","1","0","2","1","1","3","0","2","0","2","1","1","0","1","1","2","1","1","2","1","1","2","3","1","3","2","3","3","1","2","0","1","3","3","3","1","2","922.5999999642372","<br><br><br><br><table><tr><td><img src=static/images/oddball_up.png></td><td><img src=static/images/oddball_down.png></td><td><img src=static/images/oddball_up.png></td></tr></table>","87","1","","","","","","","","","","","","","","","","","",""
"","html-keyboard-response","48","231957","0.0-2.13-1.13","037","24","F","1659723270714","q","q","Only if I get the answer right","You win money","A fixed time limit","5","female","A little","It was so fast at the first round, but later I felt good. I felt I did better than first several rounds.","1","1","0","0","0","0","0","0","0","0","1","0","0","0","0","0","0","0","0","0","0","1","1","1","0","0","1","0","2","1","1","3","0","2","0","2","1","1","0","1","1","2","1","1","2","1","1","2","3","1","3","2","3","3","1","2","0","1","3","3","3","1","2","null","<div style=""font-size:75px;""><b>Correct</b></div>","null","","","","","","","","","","","","","","","","","","",""
"","html-keyboard-response","49","232961","0.0-2.13-2.13","037","24","F","1659723270714","q","q","Only if I get the answer right","You win money","A fixed time limit","5","female","A little","It was so fast at the first round, but later I felt good. I felt I did better than first several rounds.","1","1","0","0","0","0","0","0","0","0","1","0","0","0","0","0","0","0","0","0","0","1","1","1","0","0","1","0","2","1","1","3","0","2","0","2","1","1","0","1","1","2","1","1","2","1","1","2","3","1","3","2","3","3","1","2","0","1","3","3","3","1","2","922.5999999642372","","w","","true","practice","13","up","down","1","w","1","0","1659723503926","","","","","","","",""
"","html-keyboard-response","50","233557","0.0-2.14-0.14","037","24","F","1659723270714","q","q","Only if I get the answer right","You win money","A fixed time limit","5","female","A little","It was so fast at the first round, but later I felt good. I felt I did better than first several rounds.","1","1","0","0","0","0","0","0","0","0","1","0","0","0","0","0","0","0","0","0","0","1","1","1","0","0","1","0","2","1","1","3","0","2","0","2","1","1","0","1","1","2","1","1","2","1","1","2","3","1","3","2","3","3","1","2","0","1","3","3","3","1","2","594.8999999761581","<br><br><br><br><table><tr><td><img src=static/images/oddball_up.png></td><td><img src=static/images/oddball_up.png></td><td><img src=static/images/oddball_down.png></td></tr></table>","69","1","","","","","","","","","","","","","","","","","",""
"","html-keyboard-response","51","236064","0.0-2.14-1.14","037","24","F","1659723270714","q","q","Only if I get the answer right","You win money","A fixed time limit","5","female","A little","It was so fast at the first round, but later I felt good. I felt I did better than first several rounds.","1","1","0","0","0","0","0","0","0","0","1","0","0","0","0","0","0","0","0","0","0","1","1","1","0","0","1","0","2","1","1","3","0","2","0","2","1","1","0","1","1","2","1","1","2","1","1","2","3","1","3","2","3","3","1","2","0","1","3","3","3","1","2","null","<div style=""font-size:75px;""><b>Correct</b></div>","null","","","","","","","","","","","","","","","","","","",""
"","html-keyboard-response","52","237070","0.0-2.14-2.14","037","24","F","1659723270714","q","q","Only if I get the answer right","You win money","A fixed time limit","5","female","A little","It was so fast at the first round, but later I felt good. I felt I did better than first several rounds.","1","1","0","0","0","0","0","0","0","0","1","0","0","0","0","0","0","0","0","0","0","1","1","1","0","0","1","0","2","1","1","3","0","2","0","2","1","1","0","1","1","2","1","1","2","1","1","2","3","1","3","2","3","3","1","2","0","1","3","3","3","1","2","594.8999999761581","","e","","true","practice","14","up","down","2","e","1","0","1659723508035","","","","","","","",""
"","html-keyboard-response","53","237709","0.0-2.15-0.15","037","24","F","1659723270714","q","q","Only if I get the answer right","You win money","A fixed time limit","5","female","A little","It was so fast at the first round, but later I felt good. I felt I did better than first several rounds.","1","1","0","0","0","0","0","0","0","0","1","0","0","0","0","0","0","0","0","0","0","1","1","1","0","0","1","0","2","1","1","3","0","2","0","2","1","1","0","1","1","2","1","1","2","1","1","2","3","1","3","2","3","3","1","2","0","1","3","3","3","1","2","637.5999999642372","<br><br><br><br><table><tr><td><img src=static/images/oddball_down.png></td><td><img src=static/images/oddball_down.png></td><td><img src=static/images/oddball_up.png></td></tr></table>","69","1","","","","","","","","","","","","","","","","","",""
"","html-keyboard-response","54","240223","0.0-2.15-1.15","037","24","F","1659723270714","q","q","Only if I get the answer right","You win money","A fixed time limit","5","female","A little","It was so fast at the first round, but later I felt good. I felt I did better than first several rounds.","1","1","0","0","0","0","0","0","0","0","1","0","0","0","0","0","0","0","0","0","0","1","1","1","0","0","1","0","2","1","1","3","0","2","0","2","1","1","0","1","1","2","1","1","2","1","1","2","3","1","3","2","3","3","1","2","0","1","3","3","3","1","2","null","<div style=""font-size:75px;""><b>Correct</b></div>","null","","","","","","","","","","","","","","","","","","",""
"","html-keyboard-response","55","241229","0.0-2.15-2.15","037","24","F","1659723270714","q","q","Only if I get the answer right","You win money","A fixed time limit","5","female","A little","It was so fast at the first round, but later I felt good. I felt I did better than first several rounds.","1","1","0","0","0","0","0","0","0","0","1","0","0","0","0","0","0","0","0","0","0","1","1","1","0","0","1","0","2","1","1","3","0","2","0","2","1","1","0","1","1","2","1","1","2","1","1","2","3","1","3","2","3","3","1","2","0","1","3","3","3","1","2","637.5999999642372","","e","","true","practice","15","down","up","2","e","1","0","1659723512194","","","","","","","",""
"","html-keyboard-response","56","241820","0.0-2.16-0.16","037","24","F","1659723270714","q","q","Only if I get the answer right","You win money","A fixed time limit","5","female","A little","It was so fast at the first round, but later I felt good. I felt I did better than first several rounds.","1","1","0","0","0","0","0","0","0","0","1","0","0","0","0","0","0","0","0","0","0","1","1","1","0","0","1","0","2","1","1","3","0","2","0","2","1","1","0","1","1","2","1","1","2","1","1","2","3","1","3","2","3","3","1","2","0","1","3","3","3","1","2","591.1000000238419","<br><br><br><br><table><tr><td><img src=static/images/oddball_up.png></td><td><img src=static/images/oddball_up.png></td><td><img src=static/images/oddball_down.png></td></tr></table>","69","1","","","","","","","","","","","","","","","","","",""
"","html-keyboard-response","57","244331","0.0-2.16-1.16","037","24","F","1659723270714","q","q","Only if I get the answer right","You win money","A fixed time limit","5","female","A little","It was so fast at the first round, but later I felt good. I felt I did better than first several rounds.","1","1","0","0","0","0","0","0","0","0","1","0","0","0","0","0","0","0","0","0","0","1","1","1","0","0","1","0","2","1","1","3","0","2","0","2","1","1","0","1","1","2","1","1","2","1","1","2","3","1","3","2","3","3","1","2","0","1","3","3","3","1","2","null","<div style=""font-size:75px;""><b>Correct</b></div>","null","","","","","","","","","","","","","","","","","","",""
"","html-keyboard-response","58","245338","0.0-2.16-2.16","037","24","F","1659723270714","q","q","Only if I get the answer right","You win money","A fixed time limit","5","female","A little","It was so fast at the first round, but later I felt good. I felt I did better than first several rounds.","1","1","0","0","0","0","0","0","0","0","1","0","0","0","0","0","0","0","0","0","0","1","1","1","0","0","1","0","2","1","1","3","0","2","0","2","1","1","0","1","1","2","1","1","2","1","1","2","3","1","3","2","3","3","1","2","0","1","3","3","3","1","2","591.1000000238419","","e","","true","practice","16","up","down","2","e","1","0","1659723516303","","","","","","","",""
"","html-keyboard-response","59","246692","0.0-2.17-0.17","037","24","F","1659723270714","q","q","Only if I get the answer right","You win money","A fixed time limit","5","female","A little","It was so fast at the first round, but later I felt good. I felt I did better than first several rounds.","1","1","0","0","0","0","0","0","0","0","1","0","0","0","0","0","0","0","0","0","0","1","1","1","0","0","1","0","2","1","1","3","0","2","0","2","1","1","0","1","1","2","1","1","2","1","1","2","3","1","3","2","3","3","1","2","0","1","3","3","3","1","2","1354.0999999642372","<br><br><br><br><table><tr><td><img src=static/images/oddball_up.png></td><td><img src=static/images/oddball_down.png></td><td><img src=static/images/oddball_up.png></td></tr></table>","87","1","","","","","","","","","","","","","","","","","",""
"","html-keyboard-response","60","249205","0.0-2.17-1.17","037","24","F","1659723270714","q","q","Only if I get the answer right","You win money","A fixed time limit","5","female","A little","It was so fast at the first round, but later I felt good. I felt I did better than first several rounds.","1","1","0","0","0","0","0","0","0","0","1","0","0","0","0","0","0","0","0","0","0","1","1","1","0","0","1","0","2","1","1","3","0","2","0","2","1","1","0","1","1","2","1","1","2","1","1","2","3","1","3","2","3","3","1","2","0","1","3","3","3","1","2","null","<div style=""font-size:75px;""><b>Correct</b></div>","null","","","","","","","","","","","","","","","","","","",""
"","html-keyboard-response","61","250212","0.0-2.17-2.17","037","24","F","1659723270714","q","q","Only if I get the answer right","You win money","A fixed time limit","5","female","A little","It was so fast at the first round, but later I felt good. I felt I did better than first several rounds.","1","1","0","0","0","0","0","0","0","0","1","0","0","0","0","0","0","0","0","0","0","1","1","1","0","0","1","0","2","1","1","3","0","2","0","2","1","1","0","1","1","2","1","1","2","1","1","2","3","1","3","2","3","3","1","2","0","1","3","3","3","1","2","1354.0999999642372","","w","","true","practice","17","up","down","1","w","1","0","1659723521177","","","","","","","",""
"","html-keyboard-response","62","250924","0.0-2.18-0.18","037","24","F","1659723270714","q","q","Only if I get the answer right","You win money","A fixed time limit","5","female","A little","It was so fast at the first round, but later I felt good. I felt I did better than first several rounds.","1","1","0","0","0","0","0","0","0","0","1","0","0","0","0","0","0","0","0","0","0","1","1","1","0","0","1","0","2","1","1","3","0","2","0","2","1","1","0","1","1","2","1","1","2","1","1","2","3","1","3","2","3","3","1","2","0","1","3","3","3","1","2","712.3000000119209","<br><br><br><br><table><tr><td><img src=static/images/oddball_up.png></td><td><img src=static/images/oddball_up.png></td><td><img src=static/images/oddball_down.png></td></tr></table>","69","1","","","","","","","","","","","","","","","","","",""
"","html-keyboard-response","63","253431","0.0-2.18-1.18","037","24","F","1659723270714","q","q","Only if I get the answer right","You win money","A fixed time limit","5","female","A little","It was so fast at the first round, but later I felt good. I felt I did better than first several rounds.","1","1","0","0","0","0","0","0","0","0","1","0","0","0","0","0","0","0","0","0","0","1","1","1","0","0","1","0","2","1","1","3","0","2","0","2","1","1","0","1","1","2","1","1","2","1","1","2","3","1","3","2","3","3","1","2","0","1","3","3","3","1","2","null","<div style=""font-size:75px;""><b>Correct</b></div>","null","","","","","","","","","","","","","","","","","","",""
"","html-keyboard-response","64","254438","0.0-2.18-2.18","037","24","F","1659723270714","q","q","Only if I get the answer right","You win money","A fixed time limit","5","female","A little","It was so fast at the first round, but later I felt good. I felt I did better than first several rounds.","1","1","0","0","0","0","0","0","0","0","1","0","0","0","0","0","0","0","0","0","0","1","1","1","0","0","1","0","2","1","1","3","0","2","0","2","1","1","0","1","1","2","1","1","2","1","1","2","3","1","3","2","3","3","1","2","0","1","3","3","3","1","2","712.3000000119209","","e","","true","practice","18","up","down","2","e","1","0","1659723525403","","","","","","","",""
"","html-keyboard-response","65","255004","0.0-2.19-0.19","037","24","F","1659723270714","q","q","Only if I get the answer right","You win money","A fixed time limit","5","female","A little","It was so fast at the first round, but later I felt good. I felt I did better than first several rounds.","1","1","0","0","0","0","0","0","0","0","1","0","0","0","0","0","0","0","0","0","0","1","1","1","0","0","1","0","2","1","1","3","0","2","0","2","1","1","0","1","1","2","1","1","2","1","1","2","3","1","3","2","3","3","1","2","0","1","3","3","3","1","2","565.6999999880791","<br><br><br><br><table><tr><td><img src=static/images/oddball_up.png></td><td><img src=static/images/oddball_up.png></td><td><img src=static/images/oddball_down.png></td></tr></table>","69","1","","","","","","","","","","","","","","","","","",""
"","html-keyboard-response","66","257506","0.0-2.19-1.19","037","24","F","1659723270714","q","q","Only if I get the answer right","You win money","A fixed time limit","5","female","A little","It was so fast at the first round, but later I felt good. I felt I did better than first several rounds.","1","1","0","0","0","0","0","0","0","0","1","0","0","0","0","0","0","0","0","0","0","1","1","1","0","0","1","0","2","1","1","3","0","2","0","2","1","1","0","1","1","2","1","1","2","1","1","2","3","1","3","2","3","3","1","2","0","1","3","3","3","1","2","null","<div style=""font-size:75px;""><b>Correct</b></div>","null","","","","","","","","","","","","","","","","","","",""
"","html-keyboard-response","67","258513","0.0-2.19-2.19","037","24","F","1659723270714","q","q","Only if I get the answer right","You win money","A fixed time limit","5","female","A little","It was so fast at the first round, but later I felt good. I felt I did better than first several rounds.","1","1","0","0","0","0","0","0","0","0","1","0","0","0","0","0","0","0","0","0","0","1","1","1","0","0","1","0","2","1","1","3","0","2","0","2","1","1","0","1","1","2","1","1","2","1","1","2","3","1","3","2","3","3","1","2","0","1","3","3","3","1","2","565.6999999880791","","e","","true","practice","19","up","down","2","e","1","0","1659723529478","","","","","","","",""
"","image-keyboard-response","68","267924","0.0-3.0-0.0","037","24","F","1659723270714","q","q","Only if I get the answer right","You win money","A fixed time limit","5","female","A little","It was so fast at the first round, but later I felt good. I felt I did better than first several rounds.","1","1","0","0","0","0","0","0","0","0","1","0","0","0","0","0","0","0","0","0","0","1","1","1","0","0","1","0","2","1","1","3","0","2","0","2","1","1","0","1","1","2","1","1","2","1","1","2","3","1","3","2","3","3","1","2","0","1","3","3","3","1","2","9411","static/images/instructions/Slide8.png","39","","","","","","","","","","","","","","","","","","",""
"","image-keyboard-response","69","293225","0.0-3.1-0.1","037","24","F","1659723270714","q","q","Only if I get the answer right","You win money","A fixed time limit","5","female","A little","It was so fast at the first round, but later I felt good. I felt I did better than first several rounds.","1","1","0","0","0","0","0","0","0","0","1","0","0","0","0","0","0","0","0","0","0","1","1","1","0","0","1","0","2","1","1","3","0","2","0","2","1","1","0","1","1","2","1","1","2","1","1","2","3","1","3","2","3","3","1","2","0","1","3","3","3","1","2","25311.299999952316","static/images/instructions/Slide9.png","39","","","","","","","","","","","","","","","","","","",""
"","image-keyboard-response","70","302473","0.0-3.2-0.2","037","24","F","1659723270714","q","q","Only if I get the answer right","You win money","A fixed time limit","5","female","A little","It was so fast at the first round, but later I felt good. I felt I did better than first several rounds.","1","1","0","0","0","0","0","0","0","0","1","0","0","0","0","0","0","0","0","0","0","1","1","1","0","0","1","0","2","1","1","3","0","2","0","2","1","1","0","1","1","2","1","1","2","1","1","2","3","1","3","2","3","3","1","2","0","1","3","3","3","1","2","9247.300000011921","static/images/instructions/Slide10.png","39","","","","","","","","","","","","","","","","","","",""
"","image-keyboard-response","71","321008","0.0-3.3-0.3","037","24","F","1659723270714","q","q","Only if I get the answer right","You win money","A fixed time limit","5","female","A little","It was so fast at the first round, but later I felt good. I felt I did better than first several rounds.","1","1","0","0","0","0","0","0","0","0","1","0","0","0","0","0","0","0","0","0","0","1","1","1","0","0","1","0","2","1","1","3","0","2","0","2","1","1","0","1","1","2","1","1","2","1","1","2","3","1","3","2","3","3","1","2","0","1","3","3","3","1","2","18535.30000001192","static/images/instructions/Slide11.png","39","","","","","","","","","","","","","","","","","","",""
"","image-keyboard-response","72","324721","0.0-3.4-0.4","037","24","F","1659723270714","q","q","Only if I get the answer right","You win money","A fixed time limit","5","female","A little","It was so fast at the first round, but later I felt good. I felt I did better than first several rounds.","1","1","0","0","0","0","0","0","0","0","1","0","0","0","0","0","0","0","0","0","0","1","1","1","0","0","1","0","2","1","1","3","0","2","0","2","1","1","0","1","1","2","1","1","2","1","1","2","3","1","3","2","3","3","1","2","0","1","3","3","3","1","2","3711.5","static/images/instructions/Slide12.png","39","","","","","","","","","","","","","","","","","","",""
"","image-keyboard-response","73","336953","0.0-3.5-0.5","037","24","F","1659723270714","q","q","Only if I get the answer right","You win money","A fixed time limit","5","female","A little","It was so fast at the first round, but later I felt good. I felt I did better than first several rounds.","1","1","0","0","0","0","0","0","0","0","1","0","0","0","0","0","0","0","0","0","0","1","1","1","0","0","1","0","2","1","1","3","0","2","0","2","1","1","0","1","1","2","1","1","2","1","1","2","3","1","3","2","3","3","1","2","0","1","3","3","3","1","2","12231.300000011921","static/images/instructions/Slide13.png","39","","","","","","","","","","","","","","","","","","",""
"","image-keyboard-response","74","350328","0.0-3.6-0.6","037","24","F","1659723270714","q","q","Only if I get the answer right","You win money","A fixed time limit","5","female","A little","It was so fast at the first round, but later I felt good. I felt I did better than first several rounds.","1","1","0","0","0","0","0","0","0","0","1","0","0","0","0","0","0","0","0","0","0","1","1","1","0","0","1","0","2","1","1","3","0","2","0","2","1","1","0","1","1","2","1","1","2","1","1","2","3","1","3","2","3","3","1","2","0","1","3","3","3","1","2","13375.199999988079","static/images/instructions/Slide14.png","39","","","","","","","","","","","","","","","","","","",""
"","image-keyboard-response","75","361446","0.0-3.7-0.7","037","24","F","1659723270714","q","q","Only if I get the answer right","You win money","A fixed time limit","5","female","A little","It was so fast at the first round, but later I felt good. I felt I did better than first several rounds.","1","1","0","0","0","0","0","0","0","0","1","0","0","0","0","0","0","0","0","0","0","1","1","1","0","0","1","0","2","1","1","3","0","2","0","2","1","1","0","1","1","2","1","1","2","1","1","2","3","1","3","2","3","3","1","2","0","1","3","3","3","1","2","11119.399999976158","static/images/instructions/Slide15.png","39","","","","","","","","","","","","","","","","","","",""
"","image-keyboard-response","76","384982","0.0-3.8-0.8","037","24","F","1659723270714","q","q","Only if I get the answer right","You win money","A fixed time limit","5","female","A little","It was so fast at the first round, but later I felt good. I felt I did better than first several rounds.","1","1","0","0","0","0","0","0","0","0","1","0","0","0","0","0","0","0","0","0","0","1","1","1","0","0","1","0","2","1","1","3","0","2","0","2","1","1","0","1","1","2","1","1","2","1","1","2","3","1","3","2","3","3","1","2","0","1","3","3","3","1","2","23535.5","static/images/instructions/Slide16.png","39","","","","","","","","","","","","","","","","","","",""
"","image-keyboard-response","77","392894","0.0-3.9-0.9","037","24","F","1659723270714","q","q","Only if I get the answer right","You win money","A fixed time limit","5","female","A little","It was so fast at the first round, but later I felt good. I felt I did better than first several rounds.","1","1","0","0","0","0","0","0","0","0","1","0","0","0","0","0","0","0","0","0","0","1","1","1","0","0","1","0","2","1","1","3","0","2","0","2","1","1","0","1","1","2","1","1","2","1","1","2","3","1","3","2","3","3","1","2","0","1","3","3","3","1","2","7911.099999964237","static/images/instructions/Slide17.png","39","","","","","","","","","","","","","","","","","","",""
"","survey-multi-choice","78","455189","0.0-4.0","037","24","F","1659723270714","q","q","Only if I get the answer right","You win money","A fixed time limit","5","female","A little","It was so fast at the first round, but later I felt good. I felt I did better than first several rounds.","1","1","0","0","0","0","0","0","0","0","1","0","0","0","0","0","0","0","0","0","0","1","1","1","0","0","1","0","2","1","1","3","0","2","0","2","1","1","0","1","1","2","1","1","2","1","1","2","3","1","3","2","3","3","1","2","0","1","3","3","3","1","2","62278.89999997616","","","","","","","","","","","","","","{""q1"":""q"",""q2"":""q"",""q3"":""Only if I get the answer right"",""q4"":""You win money"",""q5"":""A fixed time limit""}","[0,3,2,1,4]","","","","","",""
"","image-keyboard-response","79","466516","0.0-5.0-0.0","037","24","F","1659723270714","q","q","Only if I get the answer right","You win money","A fixed time limit","5","female","A little","It was so fast at the first round, but later I felt good. I felt I did better than first several rounds.","1","1","0","0","0","0","0","0","0","0","1","0","0","0","0","0","0","0","0","0","0","1","1","1","0","0","1","0","2","1","1","3","0","2","0","2","1","1","0","1","1","2","1","1","2","1","1","2","3","1","3","2","3","3","1","2","0","1","3","3","3","1","2","11325.800000011921","static/images/instructions/Slide18.png","39","","","","","","","","","","","","","","","","","","",""
"","html-keyboard-response","80","467521","0.0-6.0-0.0-0.0","037","24","F","1659723270714","q","q","Only if I get the answer right","You win money","A fixed time limit","5","female","A little","It was so fast at the first round, but later I felt good. I felt I did better than first several rounds.","1","1","0","0","0","0","0","0","0","0","1","0","0","0","0","0","0","0","0","0","0","1","1","1","0","0","1","0","2","1","1","3","0","2","0","2","1","1","0","1","1","2","1","1","2","1","1","2","3","1","3","2","3","3","1","2","0","1","3","3","3","1","2","null","<div style=""font-size:75px;"">3</div>","null","","","","","","","","","","","","","","","","","","",""
"","html-keyboard-response","81","468523","0.0-6.0-0.1-0.1","037","24","F","1659723270714","q","q","Only if I get the answer right","You win money","A fixed time limit","5","female","A little","It was so fast at the first round, but later I felt good. I felt I did better than first several rounds.","1","1","0","0","0","0","0","0","0","0","1","0","0","0","0","0","0","0","0","0","0","1","1","1","0","0","1","0","2","1","1","3","0","2","0","2","1","1","0","1","1","2","1","1","2","1","1","2","3","1","3","2","3","3","1","2","0","1","3","3","3","1","2","null","<div style=""font-size:75px;"">2</div>","null","","","","","","","","","","","","","","","","","","",""
"","html-keyboard-response","82","469524","0.0-6.0-0.2-0.2","037","24","F","1659723270714","q","q","Only if I get the answer right","You win money","A fixed time limit","5","female","A little","It was so fast at the first round, but later I felt good. I felt I did better than first several rounds.","1","1","0","0","0","0","0","0","0","0","1","0","0","0","0","0","0","0","0","0","0","1","1","1","0","0","1","0","2","1","1","3","0","2","0","2","1","1","0","1","1","2","1","1","2","1","1","2","3","1","3","2","3","3","1","2","0","1","3","3","3","1","2","null","<div style=""font-size:75px;"">1</div>","null","","","","","","","","","","","","","","","","","","",""
"","html-keyboard-response","83","470236","0.0-6.0-1.0-0.0","037","24","F","1659723270714","q","q","Only if I get the answer right","You win money","A fixed time limit","5","female","A little","It was so fast at the first round, but later I felt good. I felt I did better than first several rounds.","1","1","0","0","0","0","0","0","0","0","1","0","0","0","0","0","0","0","0","0","0","1","1","1","0","0","1","0","2","1","1","3","0","2","0","2","1","1","0","1","1","2","1","1","2","1","1","2","3","1","3","2","3","3","1","2","0","1","3","3","3","1","2","708.8999999761581","<br><br><br><br><table><tr><td><img src=static/images/oddball_up.png></td><td><img src=static/images/oddball_up.png></td><td><img src=static/images/oddball_down.png></td></tr></table>","69","1","","","","","","","","","","","","","","","","","",""
"","html-keyboard-response","84","470239","0.0-6.0-1.0-1.0","037","24","F","1659723270714","q","q","Only if I get the answer right","You win money","A fixed time limit","5","female","A little","It was so fast at the first round, but later I felt good. I felt I did better than first several rounds.","1","1","0","0","0","0","0","0","0","0","1","0","0","0","0","0","0","0","0","0","0","1","1","1","0","0","1","0","2","1","1","3","0","2","0","2","1","1","0","1","1","2","1","1","2","1","1","2","3","1","3","2","3","3","1","2","0","1","3","3","3","1","2","708.8999999761581","","e","","true","0","0","up","down","2","e","1","0","1659723741204","","","true","60","0","0","1","null"
"","html-keyboard-response","85","470993","0.0-6.0-1.1-0.1","037","24","F","1659723270714","q","q","Only if I get the answer right","You win money","A fixed time limit","5","female","A little","It was so fast at the first round, but later I felt good. I felt I did better than first several rounds.","1","1","0","0","0","0","0","0","0","0","1","0","0","0","0","0","0","0","0","0","0","1","1","1","0","0","1","0","2","1","1","3","0","2","0","2","1","1","0","1","1","2","1","1","2","1","1","2","3","1","3","2","3","3","1","2","0","1","3","3","3","1","2","null","<br><br><br><br><table><tr><td><img src=static/images/oddball_down.png></td><td><img src=static/images/oddball_down.png></td><td><img src=static/images/oddball_up.png></td></tr></table>","null","","","","","","","","","","","","","","","","","","",""
"","html-keyboard-response","86","470995","0.0-6.0-1.1-1.1","037","24","F","1659723270714","q","q","Only if I get the answer right","You win money","A fixed time limit","5","female","A little","It was so fast at the first round, but later I felt good. I felt I did better than first several rounds.","1","1","0","0","0","0","0","0","0","0","1","0","0","0","0","0","0","0","0","0","0","1","1","1","0","0","1","0","2","1","1","3","0","2","0","2","1","1","0","1","1","2","1","1","2","1","1","2","3","1","3","2","3","3","1","2","0","1","3","3","3","1","2","null","","null","","true","0","1","down","up","2","e","0","0","1659723741960","","","true","60","1","0.016666666666666666","1","true"
"","html-keyboard-response","87","471220","0.0-6.0-1.2-0.2","037","24","F","1659723270714","q","q","Only if I get the answer right","You win money","A fixed time limit","5","female","A little","It was so fast at the first round, but later I felt good. I felt I did better than first several rounds.","1","1","0","0","0","0","0","0","0","0","1","0","0","0","0","0","0","0","0","0","0","1","1","1","0","0","1","0","2","1","1","3","0","2","0","2","1","1","0","1","1","2","1","1","2","1","1","2","3","1","3","2","3","3","1","2","0","1","3","3","3","1","2","223.89999997615814","<br><br><br><br><table><tr><td><img src=static/images/oddball_down.png></td><td><img src=static/images/oddball_up.png></td><td><img src=static/images/oddball_up.png></td></tr></table>","69","1","","","","","","","","","","","","","","","","","",""
"","html-keyboard-response","88","471223","0.0-6.0-1.2-1.2","037","24","F","1659723270714","q","q","Only if I get the answer right","You win money","A fixed time limit","5","female","A little","It was so fast at the first round, but later I felt good. I felt I did better than first several rounds.","1","1","0","0","0","0","0","0","0","0","1","0","0","0","0","0","0","0","0","0","0","1","1","1","0","0","1","0","2","1","1","3","0","2","0","2","1","1","0","1","1","2","1","1","2","1","1","2","3","1","3","2","3","3","1","2","0","1","3","3","3","1","2","223.89999997615814","","e","","true","0","2","up","down","0","q","0","0","1659723742188","","","true","60","2","0.016666666666666666","1","false"
"","html-keyboard-response","89","471978","0.0-6.0-1.3-0.3","037","24","F","1659723270714","q","q","Only if I get the answer right","You win money","A fixed time limit","5","female","A little","It was so fast at the first round, but later I felt good. I felt I did better than first several rounds.","1","1","0","0","0","0","0","0","0","0","1","0","0","0","0","0","0","0","0","0","0","1","1","1","0","0","1","0","2","1","1","3","0","2","0","2","1","1","0","1","1","2","1","1","2","1","1","2","3","1","3","2","3","3","1","2","0","1","3","3","3","1","2","null","<br><br><br><br><table><tr><td><img src=static/images/oddball_up.png></td><td><img src=static/images/oddball_down.png></td><td><img src=static/images/oddball_up.png></td></tr></table>","null","","","","","","","","","","","","","","","","","","",""
"","html-keyboard-response","90","471982","0.0-6.0-1.3-1.3","037","24","F","1659723270714","q","q","Only if I get the answer right","You win money","A fixed time limit","5","female","A little","It was so fast at the first round, but later I felt good. I felt I did better than first several rounds.","1","1","0","0","0","0","0","0","0","0","1","0","0","0","0","0","0","0","0","0","0","1","1","1","0","0","1","0","2","1","1","3","0","2","0","2","1","1","0","1","1","2","1","1","2","1","1","2","3","1","3","2","3","3","1","2","0","1","3","3","3","1","2","null","","null","","true","0","3","up","down","1","w","0","0","1659723742947","","","true","60","3","0.016666666666666666","1","true"
"","html-keyboard-response","91","472645","0.0-6.0-1.4-0.4","037","24","F","1659723270714","q","q","Only if I get the answer right","You win money","A fixed time limit","5","female","A little","It was so fast at the first round, but later I felt good. I felt I did better than first several rounds.","1","1","0","0","0","0","0","0","0","0","1","0","0","0","0","0","0","0","0","0","0","1","1","1","0","0","1","0","2","1","1","3","0","2","0","2","1","1","0","1","1","2","1","1","2","1","1","2","3","1","3","2","3","3","1","2","0","1","3","3","3","1","2","662.1000000238419","<br><br><br><br><table><tr><td><img src=static/images/oddball_down.png></td><td><img src=static/images/oddball_down.png></td><td><img src=static/images/oddball_up.png></td></tr></table>","69","1","","","","","","","","","","","","","","","","","",""
"","html-keyboard-response","92","472648","0.0-6.0-1.4-1.4","037","24","F","1659723270714","q","q","Only if I get the answer right","You win money","A fixed time limit","5","female","A little","It was so fast at the first round, but later I felt good. I felt I did better than first several rounds.","1","1","0","0","0","0","0","0","0","0","1","0","0","0","0","0","0","0","0","0","0","1","1","1","0","0","1","0","2","1","1","3","0","2","0","2","1","1","0","1","1","2","1","1","2","1","1","2","3","1","3","2","3","3","1","2","0","1","3","3","3","1","2","662.1000000238419","","e","","true","0","4","down","up","2","e","1","0","1659723743613","","","true","60","4","0.016666666666666666","1","false"
"","html-keyboard-response","93","473212","0.0-6.0-1.5-0.5","037","24","F","1659723270714","q","q","Only if I get the answer right","You win money","A fixed time limit","5","female","A little","It was so fast at the first round, but later I felt good. I felt I did better than first several rounds.","1","1","0","0","0","0","0","0","0","0","1","0","0","0","0","0","0","0","0","0","0","1","1","1","0","0","1","0","2","1","1","3","0","2","0","2","1","1","0","1","1","2","1","1","2","1","1","2","3","1","3","2","3","3","1","2","0","1","3","3","3","1","2","563.9000000357628","<br><br><br><br><table><tr><td><img src=static/images/oddball_up.png></td><td><img src=static/images/oddball_down.png></td><td><img src=static/images/oddball_down.png></td></tr></table>","81","1","","","","","","","","","","","","","","","","","",""
"","html-keyboard-response","94","473215","0.0-6.0-1.5-1.5","037","24","F","1659723270714","q","q","Only if I get the answer right","You win money","A fixed time limit","5","female","A little","It was so fast at the first round, but later I felt good. I felt I did better than first several rounds.","1","1","0","0","0","0","0","0","0","0","1","0","0","0","0","0","0","0","0","0","0","1","1","1","0","0","1","0","2","1","1","3","0","2","0","2","1","1","0","1","1","2","1","1","2","1","1","2","3","1","3","2","3","3","1","2","0","1","3","3","3","1","2","563.9000000357628","","q","","true","0","5","down","up","0","q","1","0","1659723744180","","","true","60","5","0.03333333333333333","1","false"
"","html-keyboard-response","95","473967","0.0-6.0-1.6-0.6","037","24","F","1659723270714","q","q","Only if I get the answer right","You win money","A fixed time limit","5","female","A little","It was so fast at the first round, but later I felt good. I felt I did better than first several rounds.","1","1","0","0","0","0","0","0","0","0","1","0","0","0","0","0","0","0","0","0","0","1","1","1","0","0","1","0","2","1","1","3","0","2","0","2","1","1","0","1","1","2","1","1","2","1","1","2","3","1","3","2","3","3","1","2","0","1","3","3","3","1","2","null","<br><br><br><br><table><tr><td><img src=static/images/oddball_down.png></td><td><img src=static/images/oddball_up.png></td><td><img src=static/images/oddball_down.png></td></tr></table>","null","","","","","","","","","","","","","","","","","","",""
"","html-keyboard-response","96","473969","0.0-6.0-1.6-1.6","037","24","F","1659723270714","q","q","Only if I get the answer right","You win money","A fixed time limit","5","female","A little","It was so fast at the first round, but later I felt good. I felt I did better than first several rounds.","1","1","0","0","0","0","0","0","0","0","1","0","0","0","0","0","0","0","0","0","0","1","1","1","0","0","1","0","2","1","1","3","0","2","0","2","1","1","0","1","1","2","1","1","2","1","1","2","3","1","3","2","3","3","1","2","0","1","3","3","3","1","2","null","","null","","true","0","6","down","up","1","w","0","0","1659723744934","","","true","60","6","0.05","1","true"
"","html-keyboard-response","97","474076","0.0-6.0-1.7-0.7","037","24","F","1659723270714","q","q","Only if I get the answer right","You win money","A fixed time limit","5","female","A little","It was so fast at the first round, but later I felt good. I felt I did better than first several rounds.","1","1","0","0","0","0","0","0","0","0","1","0","0","0","0","0","0","0","0","0","0","1","1","1","0","0","1","0","2","1","1","3","0","2","0","2","1","1","0","1","1","2","1","1","2","1","1","2","3","1","3","2","3","3","1","2","0","1","3","3","3","1","2","106.30000001192093","<br><br><br><br><table><tr><td><img src=static/images/oddball_up.png></td><td><img src=static/images/oddball_up.png></td><td><img src=static/images/oddball_down.png></td></tr></table>","87","1","","","","","","","","","","","","","","","","","",""
"","html-keyboard-response","98","474079","0.0-6.0-1.7-1.7","037","24","F","1659723270714","q","q","Only if I get the answer right","You win money","A fixed time limit","5","female","A little","It was so fast at the first round, but later I felt good. I felt I did better than first several rounds.","1","1","0","0","0","0","0","0","0","0","1","0","0","0","0","0","0","0","0","0","0","1","1","1","0","0","1","0","2","1","1","3","0","2","0","2","1","1","0","1","1","2","1","1","2","1","1","2","3","1","3","2","3","3","1","2","0","1","3","3","3","1","2","106.30000001192093","","w","","true","0","7","up","down","2","e","0","0","1659723745044","","","true","60","7","0.05","1","false"
"","html-keyboard-response","99","474548","0.0-6.0-1.8-0.8","037","24","F","1659723270714","q","q","Only if I get the answer right","You win money","A fixed time limit","5","female","A little","It was so fast at the first round, but later I felt good. I felt I did better than first several rounds.","1","1","0","0","0","0","0","0","0","0","1","0","0","0","0","0","0","0","0","0","0","1","1","1","0","0","1","0","2","1","1","3","0","2","0","2","1","1","0","1","1","2","1","1","2","1","1","2","3","1","3","2","3","3","1","2","0","1","3","3","3","1","2","468.19999998807907","<br><br><br><br><table><tr><td><img src=static/images/oddball_up.png></td><td><img src=static/images/oddball_up.png></td><td><img src=static/images/oddball_down.png></td></tr></table>","69","1","","","","","","","","","","","","","","","","","",""
"","html-keyboard-response","100","474551","0.0-6.0-1.8-1.8","037","24","F","1659723270714","q","q","Only if I get the answer right","You win money","A fixed time limit","5","female","A little","It was so fast at the first round, but later I felt good. I felt I did better than first several rounds.","1","1","0","0","0","0","0","0","0","0","1","0","0","0","0","0","0","0","0","0","0","1","1","1","0","0","1","0","2","1","1","3","0","2","0","2","1","1","0","1","1","2","1","1","2","1","1","2","3","1","3","2","3","3","1","2","0","1","3","3","3","1","2","468.19999998807907","","e","","true","0","8","up","down","2","e","1","0","1659723745516","","","true","60","8","0.05","1","false"
"","html-keyboard-response","101","475085","0.0-6.0-1.9-0.9","037","24","F","1659723270714","q","q","Only if I get the answer right","You win money","A fixed time limit","5","female","A little","It was so fast at the first round, but later I felt good. I felt I did better than first several rounds.","1","1","0","0","0","0","0","0","0","0","1","0","0","0","0","0","0","0","0","0","0","1","1","1","0","0","1","0","2","1","1","3","0","2","0","2","1","1","0","1","1","2","1","1","2","1","1","2","3","1","3","2","3","3","1","2","0","1","3","3","3","1","2","533.5999999642372","<br><br><br><br><table><tr><td><img src=static/images/oddball_up.png></td><td><img src=static/images/oddball_down.png></td><td><img src=static/images/oddball_down.png></td></tr></table>","81","1","","","","","","","","","","","","","","","","","",""
"","html-keyboard-response","102","475088","0.0-6.0-1.9-1.9","037","24","F","1659723270714","q","q","Only if I get the answer right","You win money","A fixed time limit","5","female","A little","It was so fast at the first round, but later I felt good. I felt I did better than first several rounds.","1","1","0","0","0","0","0","0","0","0","1","0","0","0","0","0","0","0","0","0","0","1","1","1","0","0","1","0","2","1","1","3","0","2","0","2","1","1","0","1","1","2","1","1","2","1","1","2","3","1","3","2","3","3","1","2","0","1","3","3","3","1","2","533.5999999642372","","q","","true","0","9","down","up","0","q","1","0","1659723746053","","","true","60","9","0.06666666666666667","1","false"
"","html-keyboard-response","103","475564","0.0-6.0-1.10-0.10","037","24","F","1659723270714","q","q","Only if I get the answer right","You win money","A fixed time limit","5","female","A little","It was so fast at the first round, but later I felt good. I felt I did better than first several rounds.","1","1","0","0","0","0","0","0","0","0","1","0","0","0","0","0","0","0","0","0","0","1","1","1","0","0","1","0","2","1","1","3","0","2","0","2","1","1","0","1","1","2","1","1","2","1","1","2","3","1","3","2","3","3","1","2","0","1","3","3","3","1","2","475.60000002384186","<br><br><br><br><table><tr><td><img src=static/images/oddball_down.png></td><td><img src=static/images/oddball_down.png></td><td><img src=static/images/oddball_up.png></td></tr></table>","69","1","","","","","","","","","","","","","","","","","",""
"","html-keyboard-response","104","475568","0.0-6.0-1.10-1.10","037","24","F","1659723270714","q","q","Only if I get the answer right","You win money","A fixed time limit","5","female","A little","It was so fast at the first round, but later I felt good. I felt I did better than first several rounds.","1","1","0","0","0","0","0","0","0","0","1","0","0","0","0","0","0","0","0","0","0","1","1","1","0","0","1","0","2","1","1","3","0","2","0","2","1","1","0","1","1","2","1","1","2","1","1","2","3","1","3","2","3","3","1","2","0","1","3","3","3","1","2","475.60000002384186","","e","","true","0","10","down","up","2","e","1","0","1659723746533","","","true","60","10","0.08333333333333333","1","false"
"","html-keyboard-response","105","476321","0.0-6.0-1.11-0.11","037","24","F","1659723270714","q","q","Only if I get the answer right","You win money","A fixed time limit","5","female","A little","It was so fast at the first round, but later I felt good. I felt I did better than first several rounds.","1","1","0","0","0","0","0","0","0","0","1","0","0","0","0","0","0","0","0","0","0","1","1","1","0","0","1","0","2","1","1","3","0","2","0","2","1","1","0","1","1","2","1","1","2","1","1","2","3","1","3","2","3","3","1","2","0","1","3","3","3","1","2","null","<br><br><br><br><table><tr><td><img src=static/images/oddball_down.png></td><td><img src=static/images/oddball_down.png></td><td><img src=static/images/oddball_up.png></td></tr></table>","null","","","","","","","","","","","","","","","","","","",""
"","html-keyboard-response","106","476324","0.0-6.0-1.11-1.11","037","24","F","1659723270714","q","q","Only if I get the answer right","You win money","A fixed time limit","5","female","A little","It was so fast at the first round, but later I felt good. I felt I did better than first several rounds.","1","1","0","0","0","0","0","0","0","0","1","0","0","0","0","0","0","0","0","0","0","1","1","1","0","0","1","0","2","1","1","3","0","2","0","2","1","1","0","1","1","2","1","1","2","1","1","2","3","1","3","2","3","3","1","2","0","1","3","3","3","1","2","null","","null","","true","0","11","down","up","2","e","0","0","1659723747289","","","true","60","11","0.1","1","true"
"","html-keyboard-response","107","476388","0.0-6.0-1.12-0.12","037","24","F","1659723270714","q","q","Only if I get the answer right","You win money","A fixed time limit","5","female","A little","It was so fast at the first round, but later I felt good. I felt I did better than first several rounds.","1","1","0","0","0","0","0","0","0","0","1","0","0","0","0","0","0","0","0","0","0","1","1","1","0","0","1","0","2","1","1","3","0","2","0","2","1","1","0","1","1","2","1","1","2","1","1","2","3","1","3","2","3","3","1","2","0","1","3","3","3","1","2","63.89999997615814","<br><br><br><br><table><tr><td><img src=static/images/oddball_down.png></td><td><img src=static/images/oddball_up.png></td><td><img src=static/images/oddball_down.png></td></tr></table>","69","1","","","","","","","","","","","","","","","","","",""
"","html-keyboard-response","108","476391","0.0-6.0-1.12-1.12","037","24","F","1659723270714","q","q","Only if I get the answer right","You win money","A fixed time limit","5","female","A little","It was so fast at the first round, but later I felt good. I felt I did better than first several rounds.","1","1","0","0","0","0","0","0","0","0","1","0","0","0","0","0","0","0","0","0","0","1","1","1","0","0","1","0","2","1","1","3","0","2","0","2","1","1","0","1","1","2","1","1","2","1","1","2","3","1","3","2","3","3","1","2","0","1","3","3","3","1","2","63.89999997615814","","e","","true","0","12","down","up","1","w","0","0","1659723747356","","","true","60","12","0.1","1","false"
"","html-keyboard-response","109","476972","0.0-6.0-1.13-0.13","037","24","F","1659723270714","q","q","Only if I get the answer right","You win money","A fixed time limit","5","female","A little","It was so fast at the first round, but later I felt good. I felt I did better than first several rounds.","1","1","0","0","0","0","0","0","0","0","1","0","0","0","0","0","0","0","0","0","0","1","1","1","0","0","1","0","2","1","1","3","0","2","0","2","1","1","0","1","1","2","1","1","2","1","1","2","3","1","3","2","3","3","1","2","0","1","3","3","3","1","2","581","<br><br><br><br><table><tr><td><img src=static/images/oddball_up.png></td><td><img src=static/images/oddball_up.png></td><td><img src=static/images/oddball_down.png></td></tr></table>","69","1","","","","","","","","","","","","","","","","","",""
"","html-keyboard-response","110","476975","0.0-6.0-1.13-1.13","037","24","F","1659723270714","q","q","Only if I get the answer right","You win money","A fixed time limit","5","female","A little","It was so fast at the first round, but later I felt good. I felt I did better than first several rounds.","1","1","0","0","0","0","0","0","0","0","1","0","0","0","0","0","0","0","0","0","0","1","1","1","0","0","1","0","2","1","1","3","0","2","0","2","1","1","0","1","1","2","1","1","2","1","1","2","3","1","3","2","3","3","1","2","0","1","3","3","3","1","2","581","","e","","true","0","13","up","down","2","e","1","0","1659723747940","","","true","60","13","0.1","1","false"
"","html-keyboard-response","111","477468","0.0-6.0-1.14-0.14","037","24","F","1659723270714","q","q","Only if I get the answer right","You win money","A fixed time limit","5","female","A little","It was so fast at the first round, but later I felt good. I felt I did better than first several rounds.","1","1","0","0","0","0","0","0","0","0","1","0","0","0","0","0","0","0","0","0","0","1","1","1","0","0","1","0","2","1","1","3","0","2","0","2","1","1","0","1","1","2","1","1","2","1","1","2","3","1","3","2","3","3","1","2","0","1","3","3","3","1","2","492.60000002384186","<br><br><br><br><table><tr><td><img src=static/images/oddball_down.png></td><td><img src=static/images/oddball_up.png></td><td><img src=static/images/oddball_up.png></td></tr></table>","81","1","","","","","","","","","","","","","","","","","",""
"","html-keyboard-response","112","477472","0.0-6.0-1.14-1.14","037","24","F","1659723270714","q","q","Only if I get the answer right","You win money","A fixed time limit","5","female","A little","It was so fast at the first round, but later I felt good. I felt I did better than first several rounds.","1","1","0","0","0","0","0","0","0","0","1","0","0","0","0","0","0","0","0","0","0","1","1","1","0","0","1","0","2","1","1","3","0","2","0","2","1","1","0","1","1","2","1","1","2","1","1","2","3","1","3","2","3","3","1","2","0","1","3","3","3","1","2","492.60000002384186","","q","","true","0","14","up","down","0","q","1","0","1659723748437","","","true","60","14","0.11666666666666667","1","false"
"","html-keyboard-response","113","477980","0.0-6.0-1.15-0.15","037","24","F","1659723270714","q","q","Only if I get the answer right","You win money","A fixed time limit","5","female","A little","It was so fast at the first round, but later I felt good. I felt I did better than first several rounds.","1","1","0","0","0","0","0","0","0","0","1","0","0","0","0","0","0","0","0","0","0","1","1","1","0","0","1","0","2","1","1","3","0","2","0","2","1","1","0","1","1","2","1","1","2","1","1","2","3","1","3","2","3","3","1","2","0","1","3","3","3","1","2","508.10000002384186","<br><br><br><br><table><tr><td><img src=static/images/oddball_up.png></td><td><img src=static/images/oddball_up.png></td><td><img src=static/images/oddball_down.png></td></tr></table>","69","1","","","","","","","","","","","","","","","","","",""
"","html-keyboard-response","114","477983","0.0-6.0-1.15-1.15","037","24","F","1659723270714","q","q","Only if I get the answer right","You win money","A fixed time limit","5","female","A little","It was so fast at the first round, but later I felt good. I felt I did better than first several rounds.","1","1","0","0","0","0","0","0","0","0","1","0","0","0","0","0","0","0","0","0","0","1","1","1","0","0","1","0","2","1","1","3","0","2","0","2","1","1","0","1","1","2","1","1","2","1","1","2","3","1","3","2","3","3","1","2","0","1","3","3","3","1","2","508.10000002384186","","e","","true","0","15","up","down","2","e","1","0","1659723748948","","","true","60","15","0.13333333333333333","1","false"
"","html-keyboard-response","115","478412","0.0-6.0-1.16-0.16","037","24","F","1659723270714","q","q","Only if I get the answer right","You win money","A fixed time limit","5","female","A little","It was so fast at the first round, but later I felt good. I felt I did better than first several rounds.","1","1","0","0","0","0","0","0","0","0","1","0","0","0","0","0","0","0","0","0","0","1","1","1","0","0","1","0","2","1","1","3","0","2","0","2","1","1","0","1","1","2","1","1","2","1","1","2","3","1","3","2","3","3","1","2","0","1","3","3","3","1","2","428.9000000357628","<br><br><br><br><table><tr><td><img src=static/images/oddball_down.png></td><td><img src=static/images/oddball_down.png></td><td><img src=static/images/oddball_up.png></td></tr></table>","69","1","","","","","","","","","","","","","","","","","",""
"","html-keyboard-response","116","478415","0.0-6.0-1.16-1.16","037","24","F","1659723270714","q","q","Only if I get the answer right","You win money","A fixed time limit","5","female","A little","It was so fast at the first round, but later I felt good. I felt I did better than first several rounds.","1","1","0","0","0","0","0","0","0","0","1","0","0","0","0","0","0","0","0","0","0","1","1","1","0","0","1","0","2","1","1","3","0","2","0","2","1","1","0","1","1","2","1","1","2","1","1","2","3","1","3","2","3","3","1","2","0","1","3","3","3","1","2","428.9000000357628","","e","","true","0","16","down","up","2","e","1","0","1659723749380","","","true","60","16","0.15","1","false"
"","html-keyboard-response","117","479175","0.0-6.0-1.17-0.17","037","24","F","1659723270714","q","q","Only if I get the answer right","You win money","A fixed time limit","5","female","A little","It was so fast at the first round, but later I felt good. I felt I did better than first several rounds.","1","1","0","0","0","0","0","0","0","0","1","0","0","0","0","0","0","0","0","0","0","1","1","1","0","0","1","0","2","1","1","3","0","2","0","2","1","1","0","1","1","2","1","1","2","1","1","2","3","1","3","2","3","3","1","2","0","1","3","3","3","1","2","null","<br><br><br><br><table><tr><td><img src=static/images/oddball_down.png></td><td><img src=static/images/oddball_down.png></td><td><img src=static/images/oddball_up.png></td></tr></table>","null","","","","","","","","","","","","","","","","","","",""
"","html-keyboard-response","118","479178","0.0-6.0-1.17-1.17","037","24","F","1659723270714","q","q","Only if I get the answer right","You win money","A fixed time limit","5","female","A little","It was so fast at the first round, but later I felt good. I felt I did better than first several rounds.","1","1","0","0","0","0","0","0","0","0","1","0","0","0","0","0","0","0","0","0","0","1","1","1","0","0","1","0","2","1","1","3","0","2","0","2","1","1","0","1","1","2","1","1","2","1","1","2","3","1","3","2","3","3","1","2","0","1","3","3","3","1","2","null","","null","","true","0","17","down","up","2","e","0","0","1659723750143","","","true","60","17","0.16666666666666666","1","true"
"","html-keyboard-response","119","479780","0.0-6.0-1.18-0.18","037","24","F","1659723270714","q","q","Only if I get the answer right","You win money","A fixed time limit","5","female","A little","It was so fast at the first round, but later I felt good. I felt I did better than first several rounds.","1","1","0","0","0","0","0","0","0","0","1","0","0","0","0","0","0","0","0","0","0","1","1","1","0","0","1","0","2","1","1","3","0","2","0","2","1","1","0","1","1","2","1","1","2","1","1","2","3","1","3","2","3","3","1","2","0","1","3","3","3","1","2","601.3999999761581","<br><br><br><br><table><tr><td><img src=static/images/oddball_down.png></td><td><img src=static/images/oddball_up.png></td><td><img src=static/images/oddball_down.png></td></tr></table>","81","1","","","","","","","","","","","","","","","","","",""
"","html-keyboard-response","120","479782","0.0-6.0-1.18-1.18","037","24","F","1659723270714","q","q","Only if I get the answer right","You win money","A fixed time limit","5","female","A little","It was so fast at the first round, but later I felt good. I felt I did better than first several rounds.","1","1","0","0","0","0","0","0","0","0","1","0","0","0","0","0","0","0","0","0","0","1","1","1","0","0","1","0","2","1","1","3","0","2","0","2","1","1","0","1","1","2","1","1","2","1","1","2","3","1","3","2","3","3","1","2","0","1","3","3","3","1","2","601.3999999761581","","q","","true","0","18","down","up","1","w","0","0","1659723750747","","","true","60","18","0.16666666666666666","1","false"
"","html-keyboard-response","121","480325","0.0-6.0-1.19-0.19","037","24","F","1659723270714","q","q","Only if I get the answer right","You win money","A fixed time limit","5","female","A little","It was so fast at the first round, but later I felt good. I felt I did better than first several rounds.","1","1","0","0","0","0","0","0","0","0","1","0","0","0","0","0","0","0","0","0","0","1","1","1","0","0","1","0","2","1","1","3","0","2","0","2","1","1","0","1","1","2","1","1","2","1","1","2","3","1","3","2","3","3","1","2","0","1","3","3","3","1","2","541.3000000119209","<br><br><br><br><table><tr><td><img src=static/images/oddball_down.png></td><td><img src=static/images/oddball_up.png></td><td><img src=static/images/oddball_down.png></td></tr></table>","87","1","","","","","","","","","","","","","","","","","",""
"","html-keyboard-response","122","480327","0.0-6.0-1.19-1.19","037","24","F","1659723270714","q","q","Only if I get the answer right","You win money","A fixed time limit","5","female","A little","It was so fast at the first round, but later I felt good. I felt I did better than first several rounds.","1","1","0","0","0","0","0","0","0","0","1","0","0","0","0","0","0","0","0","0","0","1","1","1","0","0","1","0","2","1","1","3","0","2","0","2","1","1","0","1","1","2","1","1","2","1","1","2","3","1","3","2","3","3","1","2","0","1","3","3","3","1","2","541.3000000119209","","w","","true","0","19","down","up","1","w","1","0","1659723751292","","","true","60","19","0.16666666666666666","1","false"
"","html-keyboard-response","123","481080","0.0-6.0-1.20-0.20","037","24","F","1659723270714","q","q","Only if I get the answer right","You win money","A fixed time limit","5","female","A little","It was so fast at the first round, but later I felt good. I felt I did better than first several rounds.","1","1","0","0","0","0","0","0","0","0","1","0","0","0","0","0","0","0","0","0","0","1","1","1","0","0","1","0","2","1","1","3","0","2","0","2","1","1","0","1","1","2","1","1","2","1","1","2","3","1","3","2","3","3","1","2","0","1","3","3","3","1","2","null","<br><br><br><br><table><tr><td><img src=static/images/oddball_up.png></td><td><img src=static/images/oddball_down.png></td><td><img src=static/images/oddball_up.png></td></tr></table>","null","","","","","","","","","","","","","","","","","","",""
"","html-keyboard-response","124","481082","0.0-6.0-1.20-1.20","037","24","F","1659723270714","q","q","Only if I get the answer right","You win money","A fixed time limit","5","female","A little","It was so fast at the first round, but later I felt good. I felt I did better than first several rounds.","1","1","0","0","0","0","0","0","0","0","1","0","0","0","0","0","0","0","0","0","0","1","1","1","0","0","1","0","2","1","1","3","0","2","0","2","1","1","0","1","1","2","1","1","2","1","1","2","3","1","3","2","3","3","1","2","0","1","3","3","3","1","2","null","","null","","true","0","20","up","down","1","w","0","0","1659723752047","","","true","60","20","0.18333333333333332","1","true"
"","html-keyboard-response","125","481100","0.0-6.0-1.21-0.21","037","24","F","1659723270714","q","q","Only if I get the answer right","You win money","A fixed time limit","5","female","A little","It was so fast at the first round, but later I felt good. I felt I did better than first several rounds.","1","1","0","0","0","0","0","0","0","0","1","0","0","0","0","0","0","0","0","0","0","1","1","1","0","0","1","0","2","1","1","3","0","2","0","2","1","1","0","1","1","2","1","1","2","1","1","2","3","1","3","2","3","3","1","2","0","1","3","3","3","1","2","17.399999976158142","<br><br><br><br><table><tr><td><img src=static/images/oddball_down.png></td><td><img src=static/images/oddball_up.png></td><td><img src=static/images/oddball_up.png></td></tr></table>","87","1","","","","","","","","","","","","","","","","","",""
"","html-keyboard-response","126","481104","0.0-6.0-1.21-1.21","037","24","F","1659723270714","q","q","Only if I get the answer right","You win money","A fixed time limit","5","female","A little","It was so fast at the first round, but later I felt good. I felt I did better than first several rounds.","1","1","0","0","0","0","0","0","0","0","1","0","0","0","0","0","0","0","0","0","0","1","1","1","0","0","1","0","2","1","1","3","0","2","0","2","1","1","0","1","1","2","1","1","2","1","1","2","3","1","3","2","3","3","1","2","0","1","3","3","3","1","2","17.399999976158142","","w","","true","0","21","up","down","0","q","0","0","1659723752069","","","true","60","21","0.18333333333333332","1","false"
"","html-keyboard-response","127","481645","0.0-6.0-1.22-0.22","037","24","F","1659723270714","q","q","Only if I get the answer right","You win money","A fixed time limit","5","female","A little","It was so fast at the first round, but later I felt good. I felt I did better than first several rounds.","1","1","0","0","0","0","0","0","0","0","1","0","0","0","0","0","0","0","0","0","0","1","1","1","0","0","1","0","2","1","1","3","0","2","0","2","1","1","0","1","1","2","1","1","2","1","1","2","3","1","3","2","3","3","1","2","0","1","3","3","3","1","2","548.3000000119209","<br><br><br><br><table><tr><td><img src=static/images/oddball_up.png></td><td><img src=static/images/oddball_down.png></td><td><img src=static/images/oddball_up.png></td></tr></table>","87","1","","","","","","","","","","","","","","","","","",""
"","html-keyboard-response","128","481648","0.0-6.0-1.22-1.22","037","24","F","1659723270714","q","q","Only if I get the answer right","You win money","A fixed time limit","5","female","A little","It was so fast at the first round, but later I felt good. I felt I did better than first several rounds.","1","1","0","0","0","0","0","0","0","0","1","0","0","0","0","0","0","0","0","0","0","1","1","1","0","0","1","0","2","1","1","3","0","2","0","2","1","1","0","1","1","2","1","1","2","1","1","2","3","1","3","2","3","3","1","2","0","1","3","3","3","1","2","548.3000000119209","","w","","true","0","22","up","down","1","w","1","0","1659723752613","","","true","60","22","0.18333333333333332","1","false"
"","html-keyboard-response","129","482293","0.0-6.0-1.23-0.23","037","24","F","1659723270714","q","q","Only if I get the answer right","You win money","A fixed time limit","5","female","A little","It was so fast at the first round, but later I felt good. I felt I did better than first several rounds.","1","1","0","0","0","0","0","0","0","0","1","0","0","0","0","0","0","0","0","0","0","1","1","1","0","0","1","0","2","1","1","3","0","2","0","2","1","1","0","1","1","2","1","1","2","1","1","2","3","1","3","2","3","3","1","2","0","1","3","3","3","1","2","644","<br><br><br><br><table><tr><td><img src=static/images/oddball_up.png></td><td><img src=static/images/oddball_down.png></td><td><img src=static/images/oddball_down.png></td></tr></table>","81","1","","","","","","","","","","","","","","","","","",""
"","html-keyboard-response","130","482295","0.0-6.0-1.23-1.23","037","24","F","1659723270714","q","q","Only if I get the answer right","You win money","A fixed time limit","5","female","A little","It was so fast at the first round, but later I felt good. I felt I did better than first several rounds.","1","1","0","0","0","0","0","0","0","0","1","0","0","0","0","0","0","0","0","0","0","1","1","1","0","0","1","0","2","1","1","3","0","2","0","2","1","1","0","1","1","2","1","1","2","1","1","2","3","1","3","2","3","3","1","2","0","1","3","3","3","1","2","644","","q","","true","0","23","down","up","0","q","1","0","1659723753260","","","true","60","23","0.2","1","false"
"","html-keyboard-response","131","482837","0.0-6.0-1.24-0.24","037","24","F","1659723270714","q","q","Only if I get the answer right","You win money","A fixed time limit","5","female","A little","It was so fast at the first round, but later I felt good. I felt I did better than first several rounds.","1","1","0","0","0","0","0","0","0","0","1","0","0","0","0","0","0","0","0","0","0","1","1","1","0","0","1","0","2","1","1","3","0","2","0","2","1","1","0","1","1","2","1","1","2","1","1","2","3","1","3","2","3","3","1","2","0","1","3","3","3","1","2","540.6999999880791","<br><br><br><br><table><tr><td><img src=static/images/oddball_up.png></td><td><img src=static/images/oddball_up.png></td><td><img src=static/images/oddball_down.png></td></tr></table>","69","1","","","","","","","","","","","","","","","","","",""
"","html-keyboard-response","132","482839","0.0-6.0-1.24-1.24","037","24","F","1659723270714","q","q","Only if I get the answer right","You win money","A fixed time limit","5","female","A little","It was so fast at the first round, but later I felt good. I felt I did better than first several rounds.","1","1","0","0","0","0","0","0","0","0","1","0","0","0","0","0","0","0","0","0","0","1","1","1","0","0","1","0","2","1","1","3","0","2","0","2","1","1","0","1","1","2","1","1","2","1","1","2","3","1","3","2","3","3","1","2","0","1","3","3","3","1","2","540.6999999880791","","e","","true","0","24","up","down","2","e","1","0","1659723753805","","","true","60","24","0.21666666666666667","1","false"
"","html-keyboard-response","133","483469","0.0-6.0-1.25-0.25","037","24","F","1659723270714","q","q","Only if I get the answer right","You win money","A fixed time limit","5","female","A little","It was so fast at the first round, but later I felt good. I felt I did better than first several rounds.","1","1","0","0","0","0","0","0","0","0","1","0","0","0","0","0","0","0","0","0","0","1","1","1","0","0","1","0","2","1","1","3","0","2","0","2","1","1","0","1","1","2","1","1","2","1","1","2","3","1","3","2","3","3","1","2","0","1","3","3","3","1","2","628.1999999880791","<br><br><br><br><table><tr><td><img src=static/images/oddball_down.png></td><td><img src=static/images/oddball_up.png></td><td><img src=static/images/oddball_down.png></td></tr></table>","87","1","","","","","","","","","","","","","","","","","",""
"","html-keyboard-response","134","483471","0.0-6.0-1.25-1.25","037","24","F","1659723270714","q","q","Only if I get the answer right","You win money","A fixed time limit","5","female","A little","It was so fast at the first round, but later I felt good. I felt I did better than first several rounds.","1","1","0","0","0","0","0","0","0","0","1","0","0","0","0","0","0","0","0","0","0","1","1","1","0","0","1","0","2","1","1","3","0","2","0","2","1","1","0","1","1","2","1","1","2","1","1","2","3","1","3","2","3","3","1","2","0","1","3","3","3","1","2","628.1999999880791","","w","","true","0","25","down","up","1","w","1","0","1659723754436","","","true","60","25","0.23333333333333334","1","false"
"","html-keyboard-response","135","483901","0.0-6.0-1.26-0.26","037","24","F","1659723270714","q","q","Only if I get the answer right","You win money","A fixed time limit","5","female","A little","It was so fast at the first round, but later I felt good. I felt I did better than first several rounds.","1","1","0","0","0","0","0","0","0","0","1","0","0","0","0","0","0","0","0","0","0","1","1","1","0","0","1","0","2","1","1","3","0","2","0","2","1","1","0","1","1","2","1","1","2","1","1","2","3","1","3","2","3","3","1","2","0","1","3","3","3","1","2","428.9000000357628","<br><br><br><br><table><tr><td><img src=static/images/oddball_down.png></td><td><img src=static/images/oddball_down.png></td><td><img src=static/images/oddball_up.png></td></tr></table>","69","1","","","","","","","","","","","","","","","","","",""
