success,trial_type,trial_index,time_elapsed,internal_node_id,subject,age,sex,date,instQ1,instQ2,instQ3,instQ4,instQ5,totalInstQ,gender,strategy,comments,DASS1_s,DASS2_a,DASS3_d,DASS4_a,DASS5_d,DASS6_s,DASS7_a,DASS8_s,DASS9_a,DASS10_d,DASS11_s,DASS12_s,DASS13_d,DASS14_s,DASS15_a,DASS16_d,DASS17_d,DASS18_s,DASS19_a,DASS20_a,DASS21_d,BB1,BB2,BB3,BB4,BB5,BB6,BB7,BB8,BB9,BB10,BB11,BB12,BB13,BB14,BB15,BB16,BB17,BB18,BB19,BB20,BB21,BB22,BB23,BB24,NFC1,NFC2,NFC3,NFC4,NFC5,NFC6,NFC7,NFC8,NFC9,NFC10,NFC11,NFC12,NFC13,NFC14,NFC15,NFC16,NFC17,NFC18,rt,stimulus,key_press,npress,isDataTrial,block,trialinblock,common,odd,oddidx,correct_ans,accuracy,totalTokens,timestamp,responses,question_order,showprog,blocklen,trial,progress,reward,timedout
TRUE,fullscreen,0,40295,0.0-0.0,31,20,f,1.65953E+12,q,q,Only if I get the answer right,You win money,A fixed time limit,5,female,no,really hard on the eyes ,3,1,3,1,1,0,0,3,0,0,3,3,0,1,1,0,0,0,1,1,0,1,1,1,1,1,2,2,2,2,2,2,2,2,2,0,0,1,1,1,0,2,1,1,2,3,1,1,3,3,0,3,2,3,4,4,2,3,3,3,2,1,4,,,,,,,,,,,,,,,,,,,,,,
,image-keyboard-response,1,45888,0.0-1.0-0.0,31,20,f,1.65953E+12,q,q,Only if I get the answer right,You win money,A fixed time limit,5,female,no,really hard on the eyes ,3,1,3,1,1,0,0,3,0,0,3,3,0,1,1,0,0,0,1,1,0,1,1,1,1,1,2,2,2,2,2,2,2,2,2,0,0,1,1,1,0,2,1,1,2,3,1,1,3,3,0,3,2,3,4,4,2,3,3,3,2,1,4,5591.5,static/images/instructions/Slide1.png,39,,,,,,,,,,,,,,,,,,,
,image-keyboard-response,2,55273,0.0-1.1-0.1,31,20,f,1.65953E+12,q,q,Only if I get the answer right,You win money,A fixed time limit,5,female,no,really hard on the eyes ,3,1,3,1,1,0,0,3,0,0,3,3,0,1,1,0,0,0,1,1,0,1,1,1,1,1,2,2,2,2,2,2,2,2,2,0,0,1,1,1,0,2,1,1,2,3,1,1,3,3,0,3,2,3,4,4,2,3,3,3,2,1,4,9371.9,static/images/instructions/Slide2.png,39,,,,,,,,,,,,,,,,,,,
,image-keyboard-response,3,61297,0.0-1.2-0.2,31,20,f,1.65953E+12,q,q,Only if I get the answer right,You win money,A fixed time limit,5,female,no,really hard on the eyes ,3,1,3,1,1,0,0,3,0,0,3,3,0,1,1,0,0,0,1,1,0,1,1,1,1,1,2,2,2,2,2,2,2,2,2,0,0,1,1,1,0,2,1,1,2,3,1,1,3,3,0,3,2,3,4,4,2,3,3,3,2,1,4,6023.6,static/images/instructions/Slide3.png,39,,,,,,,,,,,,,,,,,,,
,image-keyboard-response,4,66865,0.0-1.3-0.3,31,20,f,1.65953E+12,q,q,Only if I get the answer right,You win money,A fixed time limit,5,female,no,really hard on the eyes ,3,1,3,1,1,0,0,3,0,0,3,3,0,1,1,0,0,0,1,1,0,1,1,1,1,1,2,2,2,2,2,2,2,2,2,0,0,1,1,1,0,2,1,1,2,3,1,1,3,3,0,3,2,3,4,4,2,3,3,3,2,1,4,5567.2,static/images/instructions/Slide4.png,39,,,,,,,,,,,,,,,,,,,
,image-keyboard-response,5,81129,0.0-1.4-0.4,31,20,f,1.65953E+12,q,q,Only if I get the answer right,You win money,A fixed time limit,5,female,no,really hard on the eyes ,3,1,3,1,1,0,0,3,0,0,3,3,0,1,1,0,0,0,1,1,0,1,1,1,1,1,2,2,2,2,2,2,2,2,2,0,0,1,1,1,0,2,1,1,2,3,1,1,3,3,0,3,2,3,4,4,2,3,3,3,2,1,4,14263.4,static/images/instructions/Slide5.png,39,,,,,,,,,,,,,,,,,,,
,image-keyboard-response,6,83024,0.0-1.5-0.5,31,20,f,1.65953E+12,q,q,Only if I get the answer right,You win money,A fixed time limit,5,female,no,really hard on the eyes ,3,1,3,1,1,0,0,3,0,0,3,3,0,1,1,0,0,0,1,1,0,1,1,1,1,1,2,2,2,2,2,2,2,2,2,0,0,1,1,1,0,2,1,1,2,3,1,1,3,3,0,3,2,3,4,4,2,3,3,3,2,1,4,1894.8,static/images/instructions/Slide6.png,39,,,,,,,,,,,,,,,,,,,
,image-keyboard-response,7,85809,0.0-1.6-0.6,31,20,f,1.65953E+12,q,q,Only if I get the answer right,You win money,A fixed time limit,5,female,no,really hard on the eyes ,3,1,3,1,1,0,0,3,0,0,3,3,0,1,1,0,0,0,1,1,0,1,1,1,1,1,2,2,2,2,2,2,2,2,2,0,0,1,1,1,0,2,1,1,2,3,1,1,3,3,0,3,2,3,4,4,2,3,3,3,2,1,4,2783.8,static/images/instructions/Slide7.png,39,,,,,,,,,,,,,,,,,,,
,html-keyboard-response,8,88081,0.0-2.0-0.0,31,20,f,1.65953E+12,q,q,Only if I get the answer right,You win money,A fixed time limit,5,female,no,really hard on the eyes ,3,1,3,1,1,0,0,3,0,0,3,3,0,1,1,0,0,0,1,1,0,1,1,1,1,1,2,2,2,2,2,2,2,2,2,0,0,1,1,1,0,2,1,1,2,3,1,1,3,3,0,3,2,3,4,4,2,3,3,3,2,1,4,2270.8,<br><br><br><br><table><tr><td><img src=static/images/oddball_down.png></td><td><img src=static/images/oddball_up.png></td><td><img src=static/images/oddball_down.png></td></tr></table>,87,1,,,,,,,,,,,,,,,,,,
,html-keyboard-response,9,90588,0.0-2.0-1.0,31,20,f,1.65953E+12,q,q,Only if I get the answer right,You win money,A fixed time limit,5,female,no,really hard on the eyes ,3,1,3,1,1,0,0,3,0,0,3,3,0,1,1,0,0,0,1,1,0,1,1,1,1,1,2,2,2,2,2,2,2,2,2,0,0,1,1,1,0,2,1,1,2,3,1,1,3,3,0,3,2,3,4,4,2,3,3,3,2,1,4,null,"<div style=""font-size:75px;""><b>Correct</b></div>",null,,,,,,,,,,,,,,,,,,,
,html-keyboard-response,10,91594,0.0-2.0-2.0,31,20,f,1.65953E+12,q,q,Only if I get the answer right,You win money,A fixed time limit,5,female,no,really hard on the eyes ,3,1,3,1,1,0,0,3,0,0,3,3,0,1,1,0,0,0,1,1,0,1,1,1,1,1,2,2,2,2,2,2,2,2,2,0,0,1,1,1,0,2,1,1,2,3,1,1,3,3,0,3,2,3,4,4,2,3,3,3,2,1,4,2270.8,,w,,TRUE,practice,0,down,up,1,w,1,0,1.65953E+12,,,,,,,,
,html-keyboard-response,11,93377,0.0-2.1-0.1,31,20,f,1.65953E+12,q,q,Only if I get the answer right,You win money,A fixed time limit,5,female,no,really hard on the eyes ,3,1,3,1,1,0,0,3,0,0,3,3,0,1,1,0,0,0,1,1,0,1,1,1,1,1,2,2,2,2,2,2,2,2,2,0,0,1,1,1,0,2,1,1,2,3,1,1,3,3,0,3,2,3,4,4,2,3,3,3,2,1,4,1782.3,<br><br><br><br><table><tr><td><img src=static/images/oddball_up.png></td><td><img src=static/images/oddball_down.png></td><td><img src=static/images/oddball_up.png></td></tr></table>,87,1,,,,,,,,,,,,,,,,,,
,html-keyboard-response,12,95880,0.0-2.1-1.1,31,20,f,1.65953E+12,q,q,Only if I get the answer right,You win money,A fixed time limit,5,female,no,really hard on the eyes ,3,1,3,1,1,0,0,3,0,0,3,3,0,1,1,0,0,0,1,1,0,1,1,1,1,1,2,2,2,2,2,2,2,2,2,0,0,1,1,1,0,2,1,1,2,3,1,1,3,3,0,3,2,3,4,4,2,3,3,3,2,1,4,null,"<div style=""font-size:75px;""><b>Correct</b></div>",null,,,,,,,,,,,,,,,,,,,
,html-keyboard-response,13,96886,0.0-2.1-2.1,31,20,f,1.65953E+12,q,q,Only if I get the answer right,You win money,A fixed time limit,5,female,no,really hard on the eyes ,3,1,3,1,1,0,0,3,0,0,3,3,0,1,1,0,0,0,1,1,0,1,1,1,1,1,2,2,2,2,2,2,2,2,2,0,0,1,1,1,0,2,1,1,2,3,1,1,3,3,0,3,2,3,4,4,2,3,3,3,2,1,4,1782.3,,w,,TRUE,practice,1,up,down,1,w,1,0,1.65953E+12,,,,,,,,
,html-keyboard-response,14,98729,0.0-2.2-0.2,31,20,f,1.65953E+12,q,q,Only if I get the answer right,You win money,A fixed time limit,5,female,no,really hard on the eyes ,3,1,3,1,1,0,0,3,0,0,3,3,0,1,1,0,0,0,1,1,0,1,1,1,1,1,2,2,2,2,2,2,2,2,2,0,0,1,1,1,0,2,1,1,2,3,1,1,3,3,0,3,2,3,4,4,2,3,3,3,2,1,4,1842.3,<br><br><br><br><table><tr><td><img src=static/images/oddball_down.png></td><td><img src=static/images/oddball_up.png></td><td><img src=static/images/oddball_down.png></td></tr></table>,87,1,,,,,,,,,,,,,,,,,,
,html-keyboard-response,15,101240,0.0-2.2-1.2,31,20,f,1.65953E+12,q,q,Only if I get the answer right,You win money,A fixed time limit,5,female,no,really hard on the eyes ,3,1,3,1,1,0,0,3,0,0,3,3,0,1,1,0,0,0,1,1,0,1,1,1,1,1,2,2,2,2,2,2,2,2,2,0,0,1,1,1,0,2,1,1,2,3,1,1,3,3,0,3,2,3,4,4,2,3,3,3,2,1,4,null,"<div style=""font-size:75px;""><b>Correct</b></div>",null,,,,,,,,,,,,,,,,,,,
,html-keyboard-response,16,102246,0.0-2.2-2.2,31,20,f,1.65953E+12,q,q,Only if I get the answer right,You win money,A fixed time limit,5,female,no,really hard on the eyes ,3,1,3,1,1,0,0,3,0,0,3,3,0,1,1,0,0,0,1,1,0,1,1,1,1,1,2,2,2,2,2,2,2,2,2,0,0,1,1,1,0,2,1,1,2,3,1,1,3,3,0,3,2,3,4,4,2,3,3,3,2,1,4,1842.3,,w,,TRUE,practice,2,down,up,1,w,1,0,1.65953E+12,,,,,,,,
,html-keyboard-response,17,103009,0.0-2.3-0.3,31,20,f,1.65953E+12,q,q,Only if I get the answer right,You win money,A fixed time limit,5,female,no,really hard on the eyes ,3,1,3,1,1,0,0,3,0,0,3,3,0,1,1,0,0,0,1,1,0,1,1,1,1,1,2,2,2,2,2,2,2,2,2,0,0,1,1,1,0,2,1,1,2,3,1,1,3,3,0,3,2,3,4,4,2,3,3,3,2,1,4,762.8,<br><br><br><br><table><tr><td><img src=static/images/oddball_up.png></td><td><img src=static/images/oddball_down.png></td><td><img src=static/images/oddball_up.png></td></tr></table>,87,1,,,,,,,,,,,,,,,,,,
,html-keyboard-response,18,105514,0.0-2.3-1.3,31,20,f,1.65953E+12,q,q,Only if I get the answer right,You win money,A fixed time limit,5,female,no,really hard on the eyes ,3,1,3,1,1,0,0,3,0,0,3,3,0,1,1,0,0,0,1,1,0,1,1,1,1,1,2,2,2,2,2,2,2,2,2,0,0,1,1,1,0,2,1,1,2,3,1,1,3,3,0,3,2,3,4,4,2,3,3,3,2,1,4,null,"<div style=""font-size:75px;""><b>Correct</b></div>",null,,,,,,,,,,,,,,,,,,,
,html-keyboard-response,19,106524,0.0-2.3-2.3,31,20,f,1.65953E+12,q,q,Only if I get the answer right,You win money,A fixed time limit,5,female,no,really hard on the eyes ,3,1,3,1,1,0,0,3,0,0,3,3,0,1,1,0,0,0,1,1,0,1,1,1,1,1,2,2,2,2,2,2,2,2,2,0,0,1,1,1,0,2,1,1,2,3,1,1,3,3,0,3,2,3,4,4,2,3,3,3,2,1,4,762.8,,w,,TRUE,practice,3,up,down,1,w,1,0,1.65953E+12,,,,,,,,
,html-keyboard-response,20,109153,0.0-2.4-0.4,31,20,f,1.65953E+12,q,q,Only if I get the answer right,You win money,A fixed time limit,5,female,no,really hard on the eyes ,3,1,3,1,1,0,0,3,0,0,3,3,0,1,1,0,0,0,1,1,0,1,1,1,1,1,2,2,2,2,2,2,2,2,2,0,0,1,1,1,0,2,1,1,2,3,1,1,3,3,0,3,2,3,4,4,2,3,3,3,2,1,4,2629,<br><br><br><br><table><tr><td><img src=static/images/oddball_down.png></td><td><img src=static/images/oddball_up.png></td><td><img src=static/images/oddball_up.png></td></tr></table>,81,1,,,,,,,,,,,,,,,,,,
,html-keyboard-response,21,111658,0.0-2.4-1.4,31,20,f,1.65953E+12,q,q,Only if I get the answer right,You win money,A fixed time limit,5,female,no,really hard on the eyes ,3,1,3,1,1,0,0,3,0,0,3,3,0,1,1,0,0,0,1,1,0,1,1,1,1,1,2,2,2,2,2,2,2,2,2,0,0,1,1,1,0,2,1,1,2,3,1,1,3,3,0,3,2,3,4,4,2,3,3,3,2,1,4,null,"<div style=""font-size:75px;""><b>Correct</b></div>",null,,,,,,,,,,,,,,,,,,,
,html-keyboard-response,22,112664,0.0-2.4-2.4,31,20,f,1.65953E+12,q,q,Only if I get the answer right,You win money,A fixed time limit,5,female,no,really hard on the eyes ,3,1,3,1,1,0,0,3,0,0,3,3,0,1,1,0,0,0,1,1,0,1,1,1,1,1,2,2,2,2,2,2,2,2,2,0,0,1,1,1,0,2,1,1,2,3,1,1,3,3,0,3,2,3,4,4,2,3,3,3,2,1,4,2629,,q,,TRUE,practice,4,up,down,0,q,1,0,1.65953E+12,,,,,,,,
,html-keyboard-response,23,114321,0.0-2.5-0.5,31,20,f,1.65953E+12,q,q,Only if I get the answer right,You win money,A fixed time limit,5,female,no,really hard on the eyes ,3,1,3,1,1,0,0,3,0,0,3,3,0,1,1,0,0,0,1,1,0,1,1,1,1,1,2,2,2,2,2,2,2,2,2,0,0,1,1,1,0,2,1,1,2,3,1,1,3,3,0,3,2,3,4,4,2,3,3,3,2,1,4,1656,<br><br><br><br><table><tr><td><img src=static/images/oddball_up.png></td><td><img src=static/images/oddball_down.png></td><td><img src=static/images/oddball_up.png></td></tr></table>,87,1,,,,,,,,,,,,,,,,,,
,html-keyboard-response,24,116835,0.0-2.5-1.5,31,20,f,1.65953E+12,q,q,Only if I get the answer right,You win money,A fixed time limit,5,female,no,really hard on the eyes ,3,1,3,1,1,0,0,3,0,0,3,3,0,1,1,0,0,0,1,1,0,1,1,1,1,1,2,2,2,2,2,2,2,2,2,0,0,1,1,1,0,2,1,1,2,3,1,1,3,3,0,3,2,3,4,4,2,3,3,3,2,1,4,null,"<div style=""font-size:75px;""><b>Correct</b></div>",null,,,,,,,,,,,,,,,,,,,
,html-keyboard-response,25,117843,0.0-2.5-2.5,31,20,f,1.65953E+12,q,q,Only if I get the answer right,You win money,A fixed time limit,5,female,no,really hard on the eyes ,3,1,3,1,1,0,0,3,0,0,3,3,0,1,1,0,0,0,1,1,0,1,1,1,1,1,2,2,2,2,2,2,2,2,2,0,0,1,1,1,0,2,1,1,2,3,1,1,3,3,0,3,2,3,4,4,2,3,3,3,2,1,4,1656,,w,,TRUE,practice,5,up,down,1,w,1,0,1.65953E+12,,,,,,,,
,html-keyboard-response,26,119625,0.0-2.6-0.6,31,20,f,1.65953E+12,q,q,Only if I get the answer right,You win money,A fixed time limit,5,female,no,really hard on the eyes ,3,1,3,1,1,0,0,3,0,0,3,3,0,1,1,0,0,0,1,1,0,1,1,1,1,1,2,2,2,2,2,2,2,2,2,0,0,1,1,1,0,2,1,1,2,3,1,1,3,3,0,3,2,3,4,4,2,3,3,3,2,1,4,1781.5,<br><br><br><br><table><tr><td><img src=static/images/oddball_down.png></td><td><img src=static/images/oddball_up.png></td><td><img src=static/images/oddball_down.png></td></tr></table>,87,1,,,,,,,,,,,,,,,,,,
,html-keyboard-response,27,122130,0.0-2.6-1.6,31,20,f,1.65953E+12,q,q,Only if I get the answer right,You win money,A fixed time limit,5,female,no,really hard on the eyes ,3,1,3,1,1,0,0,3,0,0,3,3,0,1,1,0,0,0,1,1,0,1,1,1,1,1,2,2,2,2,2,2,2,2,2,0,0,1,1,1,0,2,1,1,2,3,1,1,3,3,0,3,2,3,4,4,2,3,3,3,2,1,4,null,"<div style=""font-size:75px;""><b>Correct</b></div>",null,,,,,,,,,,,,,,,,,,,
,html-keyboard-response,28,123137,0.0-2.6-2.6,31,20,f,1.65953E+12,q,q,Only if I get the answer right,You win money,A fixed time limit,5,female,no,really hard on the eyes ,3,1,3,1,1,0,0,3,0,0,3,3,0,1,1,0,0,0,1,1,0,1,1,1,1,1,2,2,2,2,2,2,2,2,2,0,0,1,1,1,0,2,1,1,2,3,1,1,3,3,0,3,2,3,4,4,2,3,3,3,2,1,4,1781.5,,w,,TRUE,practice,6,down,up,1,w,1,0,1.65953E+12,,,,,,,,
,html-keyboard-response,29,125273,0.0-2.7-0.7,31,20,f,1.65953E+12,q,q,Only if I get the answer right,You win money,A fixed time limit,5,female,no,really hard on the eyes ,3,1,3,1,1,0,0,3,0,0,3,3,0,1,1,0,0,0,1,1,0,1,1,1,1,1,2,2,2,2,2,2,2,2,2,0,0,1,1,1,0,2,1,1,2,3,1,1,3,3,0,3,2,3,4,4,2,3,3,3,2,1,4,2135.7,<br><br><br><br><table><tr><td><img src=static/images/oddball_up.png></td><td><img src=static/images/oddball_up.png></td><td><img src=static/images/oddball_down.png></td></tr></table>,69,1,,,,,,,,,,,,,,,,,,
,html-keyboard-response,30,127774,0.0-2.7-1.7,31,20,f,1.65953E+12,q,q,Only if I get the answer right,You win money,A fixed time limit,5,female,no,really hard on the eyes ,3,1,3,1,1,0,0,3,0,0,3,3,0,1,1,0,0,0,1,1,0,1,1,1,1,1,2,2,2,2,2,2,2,2,2,0,0,1,1,1,0,2,1,1,2,3,1,1,3,3,0,3,2,3,4,4,2,3,3,3,2,1,4,null,"<div style=""font-size:75px;""><b>Correct</b></div>",null,,,,,,,,,,,,,,,,,,,
,html-keyboard-response,31,128778,0.0-2.7-2.7,31,20,f,1.65953E+12,q,q,Only if I get the answer right,You win money,A fixed time limit,5,female,no,really hard on the eyes ,3,1,3,1,1,0,0,3,0,0,3,3,0,1,1,0,0,0,1,1,0,1,1,1,1,1,2,2,2,2,2,2,2,2,2,0,0,1,1,1,0,2,1,1,2,3,1,1,3,3,0,3,2,3,4,4,2,3,3,3,2,1,4,2135.7,,e,,TRUE,practice,7,up,down,2,e,1,0,1.65953E+12,,,,,,,,
,html-keyboard-response,32,130185,0.0-2.8-0.8,31,20,f,1.65953E+12,q,q,Only if I get the answer right,You win money,A fixed time limit,5,female,no,really hard on the eyes ,3,1,3,1,1,0,0,3,0,0,3,3,0,1,1,0,0,0,1,1,0,1,1,1,1,1,2,2,2,2,2,2,2,2,2,0,0,1,1,1,0,2,1,1,2,3,1,1,3,3,0,3,2,3,4,4,2,3,3,3,2,1,4,1406,<br><br><br><br><table><tr><td><img src=static/images/oddball_down.png></td><td><img src=static/images/oddball_up.png></td><td><img src=static/images/oddball_up.png></td></tr></table>,81,1,,,,,,,,,,,,,,,,,,
,html-keyboard-response,33,132697,0.0-2.8-1.8,31,20,f,1.65953E+12,q,q,Only if I get the answer right,You win money,A fixed time limit,5,female,no,really hard on the eyes ,3,1,3,1,1,0,0,3,0,0,3,3,0,1,1,0,0,0,1,1,0,1,1,1,1,1,2,2,2,2,2,2,2,2,2,0,0,1,1,1,0,2,1,1,2,3,1,1,3,3,0,3,2,3,4,4,2,3,3,3,2,1,4,null,"<div style=""font-size:75px;""><b>Correct</b></div>",null,,,,,,,,,,,,,,,,,,,
,html-keyboard-response,34,133704,0.0-2.8-2.8,31,20,f,1.65953E+12,q,q,Only if I get the answer right,You win money,A fixed time limit,5,female,no,really hard on the eyes ,3,1,3,1,1,0,0,3,0,0,3,3,0,1,1,0,0,0,1,1,0,1,1,1,1,1,2,2,2,2,2,2,2,2,2,0,0,1,1,1,0,2,1,1,2,3,1,1,3,3,0,3,2,3,4,4,2,3,3,3,2,1,4,1406,,q,,TRUE,practice,8,up,down,0,q,1,0,1.65953E+12,,,,,,,,
,html-keyboard-response,35,134753,0.0-2.9-0.9,31,20,f,1.65953E+12,q,q,Only if I get the answer right,You win money,A fixed time limit,5,female,no,really hard on the eyes ,3,1,3,1,1,0,0,3,0,0,3,3,0,1,1,0,0,0,1,1,0,1,1,1,1,1,2,2,2,2,2,2,2,2,2,0,0,1,1,1,0,2,1,1,2,3,1,1,3,3,0,3,2,3,4,4,2,3,3,3,2,1,4,1048,<br><br><br><br><table><tr><td><img src=static/images/oddball_up.png></td><td><img src=static/images/oddball_up.png></td><td><img src=static/images/oddball_down.png></td></tr></table>,69,1,,,,,,,,,,,,,,,,,,
,html-keyboard-response,36,137259,0.0-2.9-1.9,31,20,f,1.65953E+12,q,q,Only if I get the answer right,You win money,A fixed time limit,5,female,no,really hard on the eyes ,3,1,3,1,1,0,0,3,0,0,3,3,0,1,1,0,0,0,1,1,0,1,1,1,1,1,2,2,2,2,2,2,2,2,2,0,0,1,1,1,0,2,1,1,2,3,1,1,3,3,0,3,2,3,4,4,2,3,3,3,2,1,4,null,"<div style=""font-size:75px;""><b>Correct</b></div>",null,,,,,,,,,,,,,,,,,,,
,html-keyboard-response,37,138275,0.0-2.9-2.9,31,20,f,1.65953E+12,q,q,Only if I get the answer right,You win money,A fixed time limit,5,female,no,really hard on the eyes ,3,1,3,1,1,0,0,3,0,0,3,3,0,1,1,0,0,0,1,1,0,1,1,1,1,1,2,2,2,2,2,2,2,2,2,0,0,1,1,1,0,2,1,1,2,3,1,1,3,3,0,3,2,3,4,4,2,3,3,3,2,1,4,1048,,e,,TRUE,practice,9,up,down,2,e,1,0,1.65953E+12,,,,,,,,
,html-keyboard-response,38,139217,0.0-2.10-0.10,31,20,f,1.65953E+12,q,q,Only if I get the answer right,You win money,A fixed time limit,5,female,no,really hard on the eyes ,3,1,3,1,1,0,0,3,0,0,3,3,0,1,1,0,0,0,1,1,0,1,1,1,1,1,2,2,2,2,2,2,2,2,2,0,0,1,1,1,0,2,1,1,2,3,1,1,3,3,0,3,2,3,4,4,2,3,3,3,2,1,4,941.2,<br><br><br><br><table><tr><td><img src=static/images/oddball_down.png></td><td><img src=static/images/oddball_up.png></td><td><img src=static/images/oddball_up.png></td></tr></table>,81,1,,,,,,,,,,,,,,,,,,
,html-keyboard-response,39,141731,0.0-2.10-1.10,31,20,f,1.65953E+12,q,q,Only if I get the answer right,You win money,A fixed time limit,5,female,no,really hard on the eyes ,3,1,3,1,1,0,0,3,0,0,3,3,0,1,1,0,0,0,1,1,0,1,1,1,1,1,2,2,2,2,2,2,2,2,2,0,0,1,1,1,0,2,1,1,2,3,1,1,3,3,0,3,2,3,4,4,2,3,3,3,2,1,4,null,"<div style=""font-size:75px;""><b>Correct</b></div>",null,,,,,,,,,,,,,,,,,,,
,html-keyboard-response,40,142739,0.0-2.10-2.10,31,20,f,1.65953E+12,q,q,Only if I get the answer right,You win money,A fixed time limit,5,female,no,really hard on the eyes ,3,1,3,1,1,0,0,3,0,0,3,3,0,1,1,0,0,0,1,1,0,1,1,1,1,1,2,2,2,2,2,2,2,2,2,0,0,1,1,1,0,2,1,1,2,3,1,1,3,3,0,3,2,3,4,4,2,3,3,3,2,1,4,941.2,,q,,TRUE,practice,10,up,down,0,q,1,0,1.65953E+12,,,,,,,,
,html-keyboard-response,41,143801,0.0-2.11-0.11,31,20,f,1.65953E+12,q,q,Only if I get the answer right,You win money,A fixed time limit,5,female,no,really hard on the eyes ,3,1,3,1,1,0,0,3,0,0,3,3,0,1,1,0,0,0,1,1,0,1,1,1,1,1,2,2,2,2,2,2,2,2,2,0,0,1,1,1,0,2,1,1,2,3,1,1,3,3,0,3,2,3,4,4,2,3,3,3,2,1,4,1061.4,<br><br><br><br><table><tr><td><img src=static/images/oddball_down.png></td><td><img src=static/images/oddball_down.png></td><td><img src=static/images/oddball_up.png></td></tr></table>,69,1,,,,,,,,,,,,,,,,,,
,html-keyboard-response,42,146306,0.0-2.11-1.11,31,20,f,1.65953E+12,q,q,Only if I get the answer right,You win money,A fixed time limit,5,female,no,really hard on the eyes ,3,1,3,1,1,0,0,3,0,0,3,3,0,1,1,0,0,0,1,1,0,1,1,1,1,1,2,2,2,2,2,2,2,2,2,0,0,1,1,1,0,2,1,1,2,3,1,1,3,3,0,3,2,3,4,4,2,3,3,3,2,1,4,null,"<div style=""font-size:75px;""><b>Correct</b></div>",null,,,,,,,,,,,,,,,,,,,
,html-keyboard-response,43,147313,0.0-2.11-2.11,31,20,f,1.65953E+12,q,q,Only if I get the answer right,You win money,A fixed time limit,5,female,no,really hard on the eyes ,3,1,3,1,1,0,0,3,0,0,3,3,0,1,1,0,0,0,1,1,0,1,1,1,1,1,2,2,2,2,2,2,2,2,2,0,0,1,1,1,0,2,1,1,2,3,1,1,3,3,0,3,2,3,4,4,2,3,3,3,2,1,4,1061.4,,e,,TRUE,practice,11,down,up,2,e,1,0,1.65953E+12,,,,,,,,
,html-keyboard-response,44,148537,0.0-2.12-0.12,31,20,f,1.65953E+12,q,q,Only if I get the answer right,You win money,A fixed time limit,5,female,no,really hard on the eyes ,3,1,3,1,1,0,0,3,0,0,3,3,0,1,1,0,0,0,1,1,0,1,1,1,1,1,2,2,2,2,2,2,2,2,2,0,0,1,1,1,0,2,1,1,2,3,1,1,3,3,0,3,2,3,4,4,2,3,3,3,2,1,4,1222.9,<br><br><br><br><table><tr><td><img src=static/images/oddball_down.png></td><td><img src=static/images/oddball_up.png></td><td><img src=static/images/oddball_up.png></td></tr></table>,81,1,,,,,,,,,,,,,,,,,,
,html-keyboard-response,45,151051,0.0-2.12-1.12,31,20,f,1.65953E+12,q,q,Only if I get the answer right,You win money,A fixed time limit,5,female,no,really hard on the eyes ,3,1,3,1,1,0,0,3,0,0,3,3,0,1,1,0,0,0,1,1,0,1,1,1,1,1,2,2,2,2,2,2,2,2,2,0,0,1,1,1,0,2,1,1,2,3,1,1,3,3,0,3,2,3,4,4,2,3,3,3,2,1,4,null,"<div style=""font-size:75px;""><b>Correct</b></div>",null,,,,,,,,,,,,,,,,,,,
,html-keyboard-response,46,152057,0.0-2.12-2.12,31,20,f,1.65953E+12,q,q,Only if I get the answer right,You win money,A fixed time limit,5,female,no,really hard on the eyes ,3,1,3,1,1,0,0,3,0,0,3,3,0,1,1,0,0,0,1,1,0,1,1,1,1,1,2,2,2,2,2,2,2,2,2,0,0,1,1,1,0,2,1,1,2,3,1,1,3,3,0,3,2,3,4,4,2,3,3,3,2,1,4,1222.9,,q,,TRUE,practice,12,up,down,0,q,1,0,1.65953E+12,,,,,,,,
,html-keyboard-response,47,153033,0.0-2.13-0.13,31,20,f,1.65953E+12,q,q,Only if I get the answer right,You win money,A fixed time limit,5,female,no,really hard on the eyes ,3,1,3,1,1,0,0,3,0,0,3,3,0,1,1,0,0,0,1,1,0,1,1,1,1,1,2,2,2,2,2,2,2,2,2,0,0,1,1,1,0,2,1,1,2,3,1,1,3,3,0,3,2,3,4,4,2,3,3,3,2,1,4,975.1,<br><br><br><br><table><tr><td><img src=static/images/oddball_up.png></td><td><img src=static/images/oddball_up.png></td><td><img src=static/images/oddball_down.png></td></tr></table>,69,1,,,,,,,,,,,,,,,,,,
,html-keyboard-response,48,155541,0.0-2.13-1.13,31,20,f,1.65953E+12,q,q,Only if I get the answer right,You win money,A fixed time limit,5,female,no,really hard on the eyes ,3,1,3,1,1,0,0,3,0,0,3,3,0,1,1,0,0,0,1,1,0,1,1,1,1,1,2,2,2,2,2,2,2,2,2,0,0,1,1,1,0,2,1,1,2,3,1,1,3,3,0,3,2,3,4,4,2,3,3,3,2,1,4,null,"<div style=""font-size:75px;""><b>Correct</b></div>",null,,,,,,,,,,,,,,,,,,,
,html-keyboard-response,49,156549,0.0-2.13-2.13,31,20,f,1.65953E+12,q,q,Only if I get the answer right,You win money,A fixed time limit,5,female,no,really hard on the eyes ,3,1,3,1,1,0,0,3,0,0,3,3,0,1,1,0,0,0,1,1,0,1,1,1,1,1,2,2,2,2,2,2,2,2,2,0,0,1,1,1,0,2,1,1,2,3,1,1,3,3,0,3,2,3,4,4,2,3,3,3,2,1,4,975.1,,e,,TRUE,practice,13,up,down,2,e,1,0,1.65953E+12,,,,,,,,
,html-keyboard-response,50,157505,0.0-2.14-0.14,31,20,f,1.65953E+12,q,q,Only if I get the answer right,You win money,A fixed time limit,5,female,no,really hard on the eyes ,3,1,3,1,1,0,0,3,0,0,3,3,0,1,1,0,0,0,1,1,0,1,1,1,1,1,2,2,2,2,2,2,2,2,2,0,0,1,1,1,0,2,1,1,2,3,1,1,3,3,0,3,2,3,4,4,2,3,3,3,2,1,4,954.8,<br><br><br><br><table><tr><td><img src=static/images/oddball_up.png></td><td><img src=static/images/oddball_up.png></td><td><img src=static/images/oddball_down.png></td></tr></table>,69,1,,,,,,,,,,,,,,,,,,
,html-keyboard-response,51,160016,0.0-2.14-1.14,31,20,f,1.65953E+12,q,q,Only if I get the answer right,You win money,A fixed time limit,5,female,no,really hard on the eyes ,3,1,3,1,1,0,0,3,0,0,3,3,0,1,1,0,0,0,1,1,0,1,1,1,1,1,2,2,2,2,2,2,2,2,2,0,0,1,1,1,0,2,1,1,2,3,1,1,3,3,0,3,2,3,4,4,2,3,3,3,2,1,4,null,"<div style=""font-size:75px;""><b>Correct</b></div>",null,,,,,,,,,,,,,,,,,,,
,html-keyboard-response,52,161020,0.0-2.14-2.14,31,20,f,1.65953E+12,q,q,Only if I get the answer right,You win money,A fixed time limit,5,female,no,really hard on the eyes ,3,1,3,1,1,0,0,3,0,0,3,3,0,1,1,0,0,0,1,1,0,1,1,1,1,1,2,2,2,2,2,2,2,2,2,0,0,1,1,1,0,2,1,1,2,3,1,1,3,3,0,3,2,3,4,4,2,3,3,3,2,1,4,954.8,,e,,TRUE,practice,14,up,down,2,e,1,0,1.65953E+12,,,,,,,,
,html-keyboard-response,53,162585,0.0-2.15-0.15,31,20,f,1.65953E+12,q,q,Only if I get the answer right,You win money,A fixed time limit,5,female,no,really hard on the eyes ,3,1,3,1,1,0,0,3,0,0,3,3,0,1,1,0,0,0,1,1,0,1,1,1,1,1,2,2,2,2,2,2,2,2,2,0,0,1,1,1,0,2,1,1,2,3,1,1,3,3,0,3,2,3,4,4,2,3,3,3,2,1,4,1563.7,<br><br><br><br><table><tr><td><img src=static/images/oddball_up.png></td><td><img src=static/images/oddball_down.png></td><td><img src=static/images/oddball_up.png></td></tr></table>,87,1,,,,,,,,,,,,,,,,,,
,html-keyboard-response,54,165092,0.0-2.15-1.15,31,20,f,1.65953E+12,q,q,Only if I get the answer right,You win money,A fixed time limit,5,female,no,really hard on the eyes ,3,1,3,1,1,0,0,3,0,0,3,3,0,1,1,0,0,0,1,1,0,1,1,1,1,1,2,2,2,2,2,2,2,2,2,0,0,1,1,1,0,2,1,1,2,3,1,1,3,3,0,3,2,3,4,4,2,3,3,3,2,1,4,null,"<div style=""font-size:75px;""><b>Correct</b></div>",null,,,,,,,,,,,,,,,,,,,
,html-keyboard-response,55,166098,0.0-2.15-2.15,31,20,f,1.65953E+12,q,q,Only if I get the answer right,You win money,A fixed time limit,5,female,no,really hard on the eyes ,3,1,3,1,1,0,0,3,0,0,3,3,0,1,1,0,0,0,1,1,0,1,1,1,1,1,2,2,2,2,2,2,2,2,2,0,0,1,1,1,0,2,1,1,2,3,1,1,3,3,0,3,2,3,4,4,2,3,3,3,2,1,4,1563.7,,w,,TRUE,practice,15,up,down,1,w,1,0,1.65953E+12,,,,,,,,
,html-keyboard-response,56,167081,0.0-2.16-0.16,31,20,f,1.65953E+12,q,q,Only if I get the answer right,You win money,A fixed time limit,5,female,no,really hard on the eyes ,3,1,3,1,1,0,0,3,0,0,3,3,0,1,1,0,0,0,1,1,0,1,1,1,1,1,2,2,2,2,2,2,2,2,2,0,0,1,1,1,0,2,1,1,2,3,1,1,3,3,0,3,2,3,4,4,2,3,3,3,2,1,4,981.8,<br><br><br><br><table><tr><td><img src=static/images/oddball_up.png></td><td><img src=static/images/oddball_down.png></td><td><img src=static/images/oddball_down.png></td></tr></table>,81,1,,,,,,,,,,,,,,,,,,
,html-keyboard-response,57,169583,0.0-2.16-1.16,31,20,f,1.65953E+12,q,q,Only if I get the answer right,You win money,A fixed time limit,5,female,no,really hard on the eyes ,3,1,3,1,1,0,0,3,0,0,3,3,0,1,1,0,0,0,1,1,0,1,1,1,1,1,2,2,2,2,2,2,2,2,2,0,0,1,1,1,0,2,1,1,2,3,1,1,3,3,0,3,2,3,4,4,2,3,3,3,2,1,4,null,"<div style=""font-size:75px;""><b>Correct</b></div>",null,,,,,,,,,,,,,,,,,,,
,html-keyboard-response,58,170589,0.0-2.16-2.16,31,20,f,1.65953E+12,q,q,Only if I get the answer right,You win money,A fixed time limit,5,female,no,really hard on the eyes ,3,1,3,1,1,0,0,3,0,0,3,3,0,1,1,0,0,0,1,1,0,1,1,1,1,1,2,2,2,2,2,2,2,2,2,0,0,1,1,1,0,2,1,1,2,3,1,1,3,3,0,3,2,3,4,4,2,3,3,3,2,1,4,981.8,,q,,TRUE,practice,16,down,up,0,q,1,0,1.65953E+12,,,,,,,,
,html-keyboard-response,59,171961,0.0-2.17-0.17,31,20,f,1.65953E+12,q,q,Only if I get the answer right,You win money,A fixed time limit,5,female,no,really hard on the eyes ,3,1,3,1,1,0,0,3,0,0,3,3,0,1,1,0,0,0,1,1,0,1,1,1,1,1,2,2,2,2,2,2,2,2,2,0,0,1,1,1,0,2,1,1,2,3,1,1,3,3,0,3,2,3,4,4,2,3,3,3,2,1,4,1371.6,<br><br><br><br><table><tr><td><img src=static/images/oddball_down.png></td><td><img src=static/images/oddball_up.png></td><td><img src=static/images/oddball_up.png></td></tr></table>,81,1,,,,,,,,,,,,,,,,,,
,html-keyboard-response,60,174463,0.0-2.17-1.17,31,20,f,1.65953E+12,q,q,Only if I get the answer right,You win money,A fixed time limit,5,female,no,really hard on the eyes ,3,1,3,1,1,0,0,3,0,0,3,3,0,1,1,0,0,0,1,1,0,1,1,1,1,1,2,2,2,2,2,2,2,2,2,0,0,1,1,1,0,2,1,1,2,3,1,1,3,3,0,3,2,3,4,4,2,3,3,3,2,1,4,null,"<div style=""font-size:75px;""><b>Correct</b></div>",null,,,,,,,,,,,,,,,,,,,
,html-keyboard-response,61,175468,0.0-2.17-2.17,31,20,f,1.65953E+12,q,q,Only if I get the answer right,You win money,A fixed time limit,5,female,no,really hard on the eyes ,3,1,3,1,1,0,0,3,0,0,3,3,0,1,1,0,0,0,1,1,0,1,1,1,1,1,2,2,2,2,2,2,2,2,2,0,0,1,1,1,0,2,1,1,2,3,1,1,3,3,0,3,2,3,4,4,2,3,3,3,2,1,4,1371.6,,q,,TRUE,practice,17,up,down,0,q,1,0,1.65953E+12,,,,,,,,
,html-keyboard-response,62,176858,0.0-2.18-0.18,31,20,f,1.65953E+12,q,q,Only if I get the answer right,You win money,A fixed time limit,5,female,no,really hard on the eyes ,3,1,3,1,1,0,0,3,0,0,3,3,0,1,1,0,0,0,1,1,0,1,1,1,1,1,2,2,2,2,2,2,2,2,2,0,0,1,1,1,0,2,1,1,2,3,1,1,3,3,0,3,2,3,4,4,2,3,3,3,2,1,4,1404.6,<br><br><br><br><table><tr><td><img src=static/images/oddball_up.png></td><td><img src=static/images/oddball_down.png></td><td><img src=static/images/oddball_down.png></td></tr></table>,81,1,,,,,,,,,,,,,,,,,,
,html-keyboard-response,63,179369,0.0-2.18-1.18,31,20,f,1.65953E+12,q,q,Only if I get the answer right,You win money,A fixed time limit,5,female,no,really hard on the eyes ,3,1,3,1,1,0,0,3,0,0,3,3,0,1,1,0,0,0,1,1,0,1,1,1,1,1,2,2,2,2,2,2,2,2,2,0,0,1,1,1,0,2,1,1,2,3,1,1,3,3,0,3,2,3,4,4,2,3,3,3,2,1,4,null,"<div style=""font-size:75px;""><b>Correct</b></div>",null,,,,,,,,,,,,,,,,,,,
,html-keyboard-response,64,180375,0.0-2.18-2.18,31,20,f,1.65953E+12,q,q,Only if I get the answer right,You win money,A fixed time limit,5,female,no,really hard on the eyes ,3,1,3,1,1,0,0,3,0,0,3,3,0,1,1,0,0,0,1,1,0,1,1,1,1,1,2,2,2,2,2,2,2,2,2,0,0,1,1,1,0,2,1,1,2,3,1,1,3,3,0,3,2,3,4,4,2,3,3,3,2,1,4,1404.6,,q,,TRUE,practice,18,down,up,0,q,1,0,1.65953E+12,,,,,,,,
,html-keyboard-response,65,181354,0.0-2.19-0.19,31,20,f,1.65953E+12,q,q,Only if I get the answer right,You win money,A fixed time limit,5,female,no,really hard on the eyes ,3,1,3,1,1,0,0,3,0,0,3,3,0,1,1,0,0,0,1,1,0,1,1,1,1,1,2,2,2,2,2,2,2,2,2,0,0,1,1,1,0,2,1,1,2,3,1,1,3,3,0,3,2,3,4,4,2,3,3,3,2,1,4,978.9,<br><br><br><br><table><tr><td><img src=static/images/oddball_down.png></td><td><img src=static/images/oddball_down.png></td><td><img src=static/images/oddball_up.png></td></tr></table>,69,1,,,,,,,,,,,,,,,,,,
,html-keyboard-response,66,183862,0.0-2.19-1.19,31,20,f,1.65953E+12,q,q,Only if I get the answer right,You win money,A fixed time limit,5,female,no,really hard on the eyes ,3,1,3,1,1,0,0,3,0,0,3,3,0,1,1,0,0,0,1,1,0,1,1,1,1,1,2,2,2,2,2,2,2,2,2,0,0,1,1,1,0,2,1,1,2,3,1,1,3,3,0,3,2,3,4,4,2,3,3,3,2,1,4,null,"<div style=""font-size:75px;""><b>Correct</b></div>",null,,,,,,,,,,,,,,,,,,,
,html-keyboard-response,67,184870,0.0-2.19-2.19,31,20,f,1.65953E+12,q,q,Only if I get the answer right,You win money,A fixed time limit,5,female,no,really hard on the eyes ,3,1,3,1,1,0,0,3,0,0,3,3,0,1,1,0,0,0,1,1,0,1,1,1,1,1,2,2,2,2,2,2,2,2,2,0,0,1,1,1,0,2,1,1,2,3,1,1,3,3,0,3,2,3,4,4,2,3,3,3,2,1,4,978.9,,e,,TRUE,practice,19,down,up,2,e,1,0,1.65953E+12,,,,,,,,
,image-keyboard-response,68,191674,0.0-3.0-0.0,31,20,f,1.65953E+12,q,q,Only if I get the answer right,You win money,A fixed time limit,5,female,no,really hard on the eyes ,3,1,3,1,1,0,0,3,0,0,3,3,0,1,1,0,0,0,1,1,0,1,1,1,1,1,2,2,2,2,2,2,2,2,2,0,0,1,1,1,0,2,1,1,2,3,1,1,3,3,0,3,2,3,4,4,2,3,3,3,2,1,4,6803.5,static/images/instructions/Slide8.png,39,,,,,,,,,,,,,,,,,,,
,image-keyboard-response,69,210314,0.0-3.1-0.1,31,20,f,1.65953E+12,q,q,Only if I get the answer right,You win money,A fixed time limit,5,female,no,really hard on the eyes ,3,1,3,1,1,0,0,3,0,0,3,3,0,1,1,0,0,0,1,1,0,1,1,1,1,1,2,2,2,2,2,2,2,2,2,0,0,1,1,1,0,2,1,1,2,3,1,1,3,3,0,3,2,3,4,4,2,3,3,3,2,1,4,18638.5,static/images/instructions/Slide9.png,39,,,,,,,,,,,,,,,,,,,
,image-keyboard-response,70,225226,0.0-3.2-0.2,31,20,f,1.65953E+12,q,q,Only if I get the answer right,You win money,A fixed time limit,5,female,no,really hard on the eyes ,3,1,3,1,1,0,0,3,0,0,3,3,0,1,1,0,0,0,1,1,0,1,1,1,1,1,2,2,2,2,2,2,2,2,2,0,0,1,1,1,0,2,1,1,2,3,1,1,3,3,0,3,2,3,4,4,2,3,3,3,2,1,4,14911.2,static/images/instructions/Slide10.png,39,,,,,,,,,,,,,,,,,,,
,image-keyboard-response,71,237060,0.0-3.3-0.3,31,20,f,1.65953E+12,q,q,Only if I get the answer right,You win money,A fixed time limit,5,female,no,really hard on the eyes ,3,1,3,1,1,0,0,3,0,0,3,3,0,1,1,0,0,0,1,1,0,1,1,1,1,1,2,2,2,2,2,2,2,2,2,0,0,1,1,1,0,2,1,1,2,3,1,1,3,3,0,3,2,3,4,4,2,3,3,3,2,1,4,11831.2,static/images/instructions/Slide11.png,39,,,,,,,,,,,,,,,,,,,
,image-keyboard-response,72,240172,0.0-3.4-0.4,31,20,f,1.65953E+12,q,q,Only if I get the answer right,You win money,A fixed time limit,5,female,no,really hard on the eyes ,3,1,3,1,1,0,0,3,0,0,3,3,0,1,1,0,0,0,1,1,0,1,1,1,1,1,2,2,2,2,2,2,2,2,2,0,0,1,1,1,0,2,1,1,2,3,1,1,3,3,0,3,2,3,4,4,2,3,3,3,2,1,4,3111.4,static/images/instructions/Slide12.png,39,,,,,,,,,,,,,,,,,,,
,image-keyboard-response,73,243499,0.0-3.5-0.5,31,20,f,1.65953E+12,q,q,Only if I get the answer right,You win money,A fixed time limit,5,female,no,really hard on the eyes ,3,1,3,1,1,0,0,3,0,0,3,3,0,1,1,0,0,0,1,1,0,1,1,1,1,1,2,2,2,2,2,2,2,2,2,0,0,1,1,1,0,2,1,1,2,3,1,1,3,3,0,3,2,3,4,4,2,3,3,3,2,1,4,3327.2,static/images/instructions/Slide13.png,39,,,,,,,,,,,,,,,,,,,
,image-keyboard-response,74,246555,0.0-3.6-0.6,31,20,f,1.65953E+12,q,q,Only if I get the answer right,You win money,A fixed time limit,5,female,no,really hard on the eyes ,3,1,3,1,1,0,0,3,0,0,3,3,0,1,1,0,0,0,1,1,0,1,1,1,1,1,2,2,2,2,2,2,2,2,2,0,0,1,1,1,0,2,1,1,2,3,1,1,3,3,0,3,2,3,4,4,2,3,3,3,2,1,4,3055.4,static/images/instructions/Slide14.png,39,,,,,,,,,,,,,,,,,,,
,image-keyboard-response,75,251324,0.0-3.7-0.7,31,20,f,1.65953E+12,q,q,Only if I get the answer right,You win money,A fixed time limit,5,female,no,really hard on the eyes ,3,1,3,1,1,0,0,3,0,0,3,3,0,1,1,0,0,0,1,1,0,1,1,1,1,1,2,2,2,2,2,2,2,2,2,0,0,1,1,1,0,2,1,1,2,3,1,1,3,3,0,3,2,3,4,4,2,3,3,3,2,1,4,4767.4,static/images/instructions/Slide15.png,39,,,,,,,,,,,,,,,,,,,
,image-keyboard-response,76,262124,0.0-3.8-0.8,31,20,f,1.65953E+12,q,q,Only if I get the answer right,You win money,A fixed time limit,5,female,no,really hard on the eyes ,3,1,3,1,1,0,0,3,0,0,3,3,0,1,1,0,0,0,1,1,0,1,1,1,1,1,2,2,2,2,2,2,2,2,2,0,0,1,1,1,0,2,1,1,2,3,1,1,3,3,0,3,2,3,4,4,2,3,3,3,2,1,4,10799.6,static/images/instructions/Slide16.png,39,,,,,,,,,,,,,,,,,,,
,image-keyboard-response,77,267691,0.0-3.9-0.9,31,20,f,1.65953E+12,q,q,Only if I get the answer right,You win money,A fixed time limit,5,female,no,really hard on the eyes ,3,1,3,1,1,0,0,3,0,0,3,3,0,1,1,0,0,0,1,1,0,1,1,1,1,1,2,2,2,2,2,2,2,2,2,0,0,1,1,1,0,2,1,1,2,3,1,1,3,3,0,3,2,3,4,4,2,3,3,3,2,1,4,5567.1,static/images/instructions/Slide17.png,39,,,,,,,,,,,,,,,,,,,
,survey-multi-choice,78,325353,0.0-4.0,31,20,f,1.65953E+12,q,q,Only if I get the answer right,You win money,A fixed time limit,5,female,no,really hard on the eyes ,3,1,3,1,1,0,0,3,0,0,3,3,0,1,1,0,0,0,1,1,0,1,1,1,1,1,2,2,2,2,2,2,2,2,2,0,0,1,1,1,0,2,1,1,2,3,1,1,3,3,0,3,2,3,4,4,2,3,3,3,2,1,4,57647.2,,,,,,,,,,,,,,"{""q1"":""q"",""q2"":""q"",""q3"":""Only if I get the answer right"",""q4"":""You win money"",""q5"":""A fixed time limit""}","[4,3,2,1,0]",,,,,,
,image-keyboard-response,79,341776,0.0-5.0-0.0,31,20,f,1.65953E+12,q,q,Only if I get the answer right,You win money,A fixed time limit,5,female,no,really hard on the eyes ,3,1,3,1,1,0,0,3,0,0,3,3,0,1,1,0,0,0,1,1,0,1,1,1,1,1,2,2,2,2,2,2,2,2,2,0,0,1,1,1,0,2,1,1,2,3,1,1,3,3,0,3,2,3,4,4,2,3,3,3,2,1,4,16421.8,static/images/instructions/Slide18.png,39,,,,,,,,,,,,,,,,,,,
,html-keyboard-response,80,342779,0.0-6.0-0.0-0.0,31,20,f,1.65953E+12,q,q,Only if I get the answer right,You win money,A fixed time limit,5,female,no,really hard on the eyes ,3,1,3,1,1,0,0,3,0,0,3,3,0,1,1,0,0,0,1,1,0,1,1,1,1,1,2,2,2,2,2,2,2,2,2,0,0,1,1,1,0,2,1,1,2,3,1,1,3,3,0,3,2,3,4,4,2,3,3,3,2,1,4,null,"<div style=""font-size:75px;"">3</div>",null,,,,,,,,,,,,,,,,,,,
,html-keyboard-response,81,343781,0.0-6.0-0.1-0.1,31,20,f,1.65953E+12,q,q,Only if I get the answer right,You win money,A fixed time limit,5,female,no,really hard on the eyes ,3,1,3,1,1,0,0,3,0,0,3,3,0,1,1,0,0,0,1,1,0,1,1,1,1,1,2,2,2,2,2,2,2,2,2,0,0,1,1,1,0,2,1,1,2,3,1,1,3,3,0,3,2,3,4,4,2,3,3,3,2,1,4,null,"<div style=""font-size:75px;"">2</div>",null,,,,,,,,,,,,,,,,,,,
,html-keyboard-response,82,344783,0.0-6.0-0.2-0.2,31,20,f,1.65953E+12,q,q,Only if I get the answer right,You win money,A fixed time limit,5,female,no,really hard on the eyes ,3,1,3,1,1,0,0,3,0,0,3,3,0,1,1,0,0,0,1,1,0,1,1,1,1,1,2,2,2,2,2,2,2,2,2,0,0,1,1,1,0,2,1,1,2,3,1,1,3,3,0,3,2,3,4,4,2,3,3,3,2,1,4,null,"<div style=""font-size:75px;"">1</div>",null,,,,,,,,,,,,,,,,,,,
,html-keyboard-response,83,345536,0.0-6.0-1.0-0.0,31,20,f,1.65953E+12,q,q,Only if I get the answer right,You win money,A fixed time limit,5,female,no,really hard on the eyes ,3,1,3,1,1,0,0,3,0,0,3,3,0,1,1,0,0,0,1,1,0,1,1,1,1,1,2,2,2,2,2,2,2,2,2,0,0,1,1,1,0,2,1,1,2,3,1,1,3,3,0,3,2,3,4,4,2,3,3,3,2,1,4,null,"<div style=""color:green; font-size:75px;""><b>$1.00</b></div><br><br><br><br><table><tr><td><img src=static/images/oddball_up.png></td><td><img src=static/images/oddball_down.png></td><td><img src=static/images/oddball_up.png></td></tr></table>",null,,,,,,,,,,,,,,,,,,,
,html-keyboard-response,84,345542,0.0-6.0-1.0-1.0,31,20,f,1.65953E+12,q,q,Only if I get the answer right,You win money,A fixed time limit,5,female,no,really hard on the eyes ,3,1,3,1,1,0,0,3,0,0,3,3,0,1,1,0,0,0,1,1,0,1,1,1,1,1,2,2,2,2,2,2,2,2,2,0,0,1,1,1,0,2,1,1,2,3,1,1,3,3,0,3,2,3,4,4,2,3,3,3,2,1,4,null,,null,,TRUE,0,0,up,down,1,w,0,0,1.65953E+12,,,FALSE,60,0,0,1,TRUE
,html-keyboard-response,85,346224,0.0-6.0-1.1-0.1,31,20,f,1.65953E+12,q,q,Only if I get the answer right,You win money,A fixed time limit,5,female,no,really hard on the eyes ,3,1,3,1,1,0,0,3,0,0,3,3,0,1,1,0,0,0,1,1,0,1,1,1,1,1,2,2,2,2,2,2,2,2,2,0,0,1,1,1,0,2,1,1,2,3,1,1,3,3,0,3,2,3,4,4,2,3,3,3,2,1,4,681.7,"<div style=""color:green; font-size:75px;""><b>$1.00</b></div><br><br><br><br><table><tr><td><img src=static/images/oddball_down.png></td><td><img src=static/images/oddball_up.png></td><td><img src=static/images/oddball_down.png></td></tr></table>",87,1,,,,,,,,,,,,,,,,,,
,html-keyboard-response,86,346227,0.0-6.0-1.1-1.1,31,20,f,1.65953E+12,q,q,Only if I get the answer right,You win money,A fixed time limit,5,female,no,really hard on the eyes ,3,1,3,1,1,0,0,3,0,0,3,3,0,1,1,0,0,0,1,1,0,1,1,1,1,1,2,2,2,2,2,2,2,2,2,0,0,1,1,1,0,2,1,1,2,3,1,1,3,3,0,3,2,3,4,4,2,3,3,3,2,1,4,681.7,,w,,TRUE,0,1,down,up,1,w,1,0,1.65953E+12,,,FALSE,60,1,0,1,FALSE
,html-keyboard-response,87,346990,0.0-6.0-1.2-0.2,31,20,f,1.65953E+12,q,q,Only if I get the answer right,You win money,A fixed time limit,5,female,no,really hard on the eyes ,3,1,3,1,1,0,0,3,0,0,3,3,0,1,1,0,0,0,1,1,0,1,1,1,1,1,2,2,2,2,2,2,2,2,2,0,0,1,1,1,0,2,1,1,2,3,1,1,3,3,0,3,2,3,4,4,2,3,3,3,2,1,4,null,"<div style=""color:green; font-size:75px;""><b>$1.00</b></div><br><br><br><br><table><tr><td><img src=static/images/oddball_up.png></td><td><img src=static/images/oddball_down.png></td><td><img src=static/images/oddball_down.png></td></tr></table>",null,,,,,,,,,,,,,,,,,,,
,html-keyboard-response,88,346993,0.0-6.0-1.2-1.2,31,20,f,1.65953E+12,q,q,Only if I get the answer right,You win money,A fixed time limit,5,female,no,really hard on the eyes ,3,1,3,1,1,0,0,3,0,0,3,3,0,1,1,0,0,0,1,1,0,1,1,1,1,1,2,2,2,2,2,2,2,2,2,0,0,1,1,1,0,2,1,1,2,3,1,1,3,3,0,3,2,3,4,4,2,3,3,3,2,1,4,null,,null,,TRUE,0,2,down,up,0,q,0,0,1.65953E+12,,,FALSE,60,2,0.016666667,1,TRUE
,html-keyboard-response,89,347136,0.0-6.0-1.3-0.3,31,20,f,1.65953E+12,q,q,Only if I get the answer right,You win money,A fixed time limit,5,female,no,really hard on the eyes ,3,1,3,1,1,0,0,3,0,0,3,3,0,1,1,0,0,0,1,1,0,1,1,1,1,1,2,2,2,2,2,2,2,2,2,0,0,1,1,1,0,2,1,1,2,3,1,1,3,3,0,3,2,3,4,4,2,3,3,3,2,1,4,142.8,"<div style=""color:green; font-size:75px;""><b>$1.00</b></div><br><br><br><br><table><tr><td><img src=static/images/oddball_up.png></td><td><img src=static/images/oddball_up.png></td><td><img src=static/images/oddball_down.png></td></tr></table>",81,1,,,,,,,,,,,,,,,,,,
,html-keyboard-response,90,347139,0.0-6.0-1.3-1.3,31,20,f,1.65953E+12,q,q,Only if I get the answer right,You win money,A fixed time limit,5,female,no,really hard on the eyes ,3,1,3,1,1,0,0,3,0,0,3,3,0,1,1,0,0,0,1,1,0,1,1,1,1,1,2,2,2,2,2,2,2,2,2,0,0,1,1,1,0,2,1,1,2,3,1,1,3,3,0,3,2,3,4,4,2,3,3,3,2,1,4,142.8,,q,,TRUE,0,3,up,down,2,e,0,0,1.65953E+12,,,FALSE,60,3,0.016666667,1,FALSE
,html-keyboard-response,91,347891,0.0-6.0-1.4-0.4,31,20,f,1.65953E+12,q,q,Only if I get the answer right,You win money,A fixed time limit,5,female,no,really hard on the eyes ,3,1,3,1,1,0,0,3,0,0,3,3,0,1,1,0,0,0,1,1,0,1,1,1,1,1,2,2,2,2,2,2,2,2,2,0,0,1,1,1,0,2,1,1,2,3,1,1,3,3,0,3,2,3,4,4,2,3,3,3,2,1,4,null,"<div style=""color:green; font-size:75px;""><b>$1.00</b></div><br><br><br><br><table><tr><td><img src=static/images/oddball_down.png></td><td><img src=static/images/oddball_up.png></td><td><img src=static/images/oddball_down.png></td></tr></table>",null,,,,,,,,,,,,,,,,,,,
,html-keyboard-response,92,347894,0.0-6.0-1.4-1.4,31,20,f,1.65953E+12,q,q,Only if I get the answer right,You win money,A fixed time limit,5,female,no,really hard on the eyes ,3,1,3,1,1,0,0,3,0,0,3,3,0,1,1,0,0,0,1,1,0,1,1,1,1,1,2,2,2,2,2,2,2,2,2,0,0,1,1,1,0,2,1,1,2,3,1,1,3,3,0,3,2,3,4,4,2,3,3,3,2,1,4,null,,null,,TRUE,0,4,down,up,1,w,0,0,1.65953E+12,,,FALSE,60,4,0.016666667,1,TRUE
,html-keyboard-response,93,348352,0.0-6.0-1.5-0.5,31,20,f,1.65953E+12,q,q,Only if I get the answer right,You win money,A fixed time limit,5,female,no,really hard on the eyes ,3,1,3,1,1,0,0,3,0,0,3,3,0,1,1,0,0,0,1,1,0,1,1,1,1,1,2,2,2,2,2,2,2,2,2,0,0,1,1,1,0,2,1,1,2,3,1,1,3,3,0,3,2,3,4,4,2,3,3,3,2,1,4,458.3,"<div style=""color:green; font-size:75px;""><b>$1.00</b></div><br><br><br><br><table><tr><td><img src=static/images/oddball_up.png></td><td><img src=static/images/oddball_down.png></td><td><img src=static/images/oddball_up.png></td></tr></table>",69,1,,,,,,,,,,,,,,,,,,
,html-keyboard-response,94,348355,0.0-6.0-1.5-1.5,31,20,f,1.65953E+12,q,q,Only if I get the answer right,You win money,A fixed time limit,5,female,no,really hard on the eyes ,3,1,3,1,1,0,0,3,0,0,3,3,0,1,1,0,0,0,1,1,0,1,1,1,1,1,2,2,2,2,2,2,2,2,2,0,0,1,1,1,0,2,1,1,2,3,1,1,3,3,0,3,2,3,4,4,2,3,3,3,2,1,4,458.3,,e,,TRUE,0,5,up,down,1,w,0,0,1.65953E+12,,,FALSE,60,5,0.016666667,1,FALSE
,html-keyboard-response,95,349107,0.0-6.0-1.6-0.6,31,20,f,1.65953E+12,q,q,Only if I get the answer right,You win money,A fixed time limit,5,female,no,really hard on the eyes ,3,1,3,1,1,0,0,3,0,0,3,3,0,1,1,0,0,0,1,1,0,1,1,1,1,1,2,2,2,2,2,2,2,2,2,0,0,1,1,1,0,2,1,1,2,3,1,1,3,3,0,3,2,3,4,4,2,3,3,3,2,1,4,null,"<div style=""color:green; font-size:75px;""><b>$1.00</b></div><br><br><br><br><table><tr><td><img src=static/images/oddball_down.png></td><td><img src=static/images/oddball_down.png></td><td><img src=static/images/oddball_up.png></td></tr></table>",null,,,,,,,,,,,,,,,,,,,
,html-keyboard-response,96,349109,0.0-6.0-1.6-1.6,31,20,f,1.65953E+12,q,q,Only if I get the answer right,You win money,A fixed time limit,5,female,no,really hard on the eyes ,3,1,3,1,1,0,0,3,0,0,3,3,0,1,1,0,0,0,1,1,0,1,1,1,1,1,2,2,2,2,2,2,2,2,2,0,0,1,1,1,0,2,1,1,2,3,1,1,3,3,0,3,2,3,4,4,2,3,3,3,2,1,4,null,,null,,TRUE,0,6,down,up,2,e,0,0,1.65953E+12,,,FALSE,60,6,0.016666667,1,TRUE
,html-keyboard-response,97,349352,0.0-6.0-1.7-0.7,31,20,f,1.65953E+12,q,q,Only if I get the answer right,You win money,A fixed time limit,5,female,no,really hard on the eyes ,3,1,3,1,1,0,0,3,0,0,3,3,0,1,1,0,0,0,1,1,0,1,1,1,1,1,2,2,2,2,2,2,2,2,2,0,0,1,1,1,0,2,1,1,2,3,1,1,3,3,0,3,2,3,4,4,2,3,3,3,2,1,4,243,"<div style=""color:green; font-size:75px;""><b>$1.00</b></div><br><br><br><br><table><tr><td><img src=static/images/oddball_down.png></td><td><img src=static/images/oddball_up.png></td><td><img src=static/images/oddball_up.png></td></tr></table>",69,1,,,,,,,,,,,,,,,,,,
,html-keyboard-response,98,349355,0.0-6.0-1.7-1.7,31,20,f,1.65953E+12,q,q,Only if I get the answer right,You win money,A fixed time limit,5,female,no,really hard on the eyes ,3,1,3,1,1,0,0,3,0,0,3,3,0,1,1,0,0,0,1,1,0,1,1,1,1,1,2,2,2,2,2,2,2,2,2,0,0,1,1,1,0,2,1,1,2,3,1,1,3,3,0,3,2,3,4,4,2,3,3,3,2,1,4,243,,e,,TRUE,0,7,up,down,0,q,0,0,1.65953E+12,,,FALSE,60,7,0.016666667,1,FALSE
,html-keyboard-response,99,350111,0.0-6.0-1.8-0.8,31,20,f,1.65953E+12,q,q,Only if I get the answer right,You win money,A fixed time limit,5,female,no,really hard on the eyes ,3,1,3,1,1,0,0,3,0,0,3,3,0,1,1,0,0,0,1,1,0,1,1,1,1,1,2,2,2,2,2,2,2,2,2,0,0,1,1,1,0,2,1,1,2,3,1,1,3,3,0,3,2,3,4,4,2,3,3,3,2,1,4,null,"<div style=""color:green; font-size:75px;""><b>$1.00</b></div><br><br><br><br><table><tr><td><img src=static/images/oddball_up.png></td><td><img src=static/images/oddball_up.png></td><td><img src=static/images/oddball_down.png></td></tr></table>",null,,,,,,,,,,,,,,,,,,,
,html-keyboard-response,100,350113,0.0-6.0-1.8-1.8,31,20,f,1.65953E+12,q,q,Only if I get the answer right,You win money,A fixed time limit,5,female,no,really hard on the eyes ,3,1,3,1,1,0,0,3,0,0,3,3,0,1,1,0,0,0,1,1,0,1,1,1,1,1,2,2,2,2,2,2,2,2,2,0,0,1,1,1,0,2,1,1,2,3,1,1,3,3,0,3,2,3,4,4,2,3,3,3,2,1,4,null,,null,,TRUE,0,8,up,down,2,e,0,0,1.65953E+12,,,FALSE,60,8,0.016666667,1,TRUE
,html-keyboard-response,101,350344,0.0-6.0-1.9-0.9,31,20,f,1.65953E+12,q,q,Only if I get the answer right,You win money,A fixed time limit,5,female,no,really hard on the eyes ,3,1,3,1,1,0,0,3,0,0,3,3,0,1,1,0,0,0,1,1,0,1,1,1,1,1,2,2,2,2,2,2,2,2,2,0,0,1,1,1,0,2,1,1,2,3,1,1,3,3,0,3,2,3,4,4,2,3,3,3,2,1,4,230.6,"<div style=""color:green; font-size:75px;""><b>$1.00</b></div><br><br><br><br><table><tr><td><img src=static/images/oddball_up.png></td><td><img src=static/images/oddball_up.png></td><td><img src=static/images/oddball_down.png></td></tr></table>",69,1,,,,,,,,,,,,,,,,,,
,html-keyboard-response,102,350347,0.0-6.0-1.9-1.9,31,20,f,1.65953E+12,q,q,Only if I get the answer right,You win money,A fixed time limit,5,female,no,really hard on the eyes ,3,1,3,1,1,0,0,3,0,0,3,3,0,1,1,0,0,0,1,1,0,1,1,1,1,1,2,2,2,2,2,2,2,2,2,0,0,1,1,1,0,2,1,1,2,3,1,1,3,3,0,3,2,3,4,4,2,3,3,3,2,1,4,230.6,,e,,TRUE,0,9,up,down,2,e,1,0,1.65953E+12,,,FALSE,60,9,0.016666667,1,FALSE
,html-keyboard-response,103,351113,0.0-6.0-1.10-0.10,31,20,f,1.65953E+12,q,q,Only if I get the answer right,You win money,A fixed time limit,5,female,no,really hard on the eyes ,3,1,3,1,1,0,0,3,0,0,3,3,0,1,1,0,0,0,1,1,0,1,1,1,1,1,2,2,2,2,2,2,2,2,2,0,0,1,1,1,0,2,1,1,2,3,1,1,3,3,0,3,2,3,4,4,2,3,3,3,2,1,4,null,"<div style=""color:green; font-size:75px;""><b>$1.00</b></div><br><br><br><br><table><tr><td><img src=static/images/oddball_up.png></td><td><img src=static/images/oddball_down.png></td><td><img src=static/images/oddball_down.png></td></tr></table>",null,,,,,,,,,,,,,,,,,,,
,html-keyboard-response,104,351115,0.0-6.0-1.10-1.10,31,20,f,1.65953E+12,q,q,Only if I get the answer right,You win money,A fixed time limit,5,female,no,really hard on the eyes ,3,1,3,1,1,0,0,3,0,0,3,3,0,1,1,0,0,0,1,1,0,1,1,1,1,1,2,2,2,2,2,2,2,2,2,0,0,1,1,1,0,2,1,1,2,3,1,1,3,3,0,3,2,3,4,4,2,3,3,3,2,1,4,null,,null,,TRUE,0,10,down,up,0,q,0,0,1.65953E+12,,,FALSE,60,10,0.033333333,1,TRUE
,html-keyboard-response,105,351704,0.0-6.0-1.11-0.11,31,20,f,1.65953E+12,q,q,Only if I get the answer right,You win money,A fixed time limit,5,female,no,really hard on the eyes ,3,1,3,1,1,0,0,3,0,0,3,3,0,1,1,0,0,0,1,1,0,1,1,1,1,1,2,2,2,2,2,2,2,2,2,0,0,1,1,1,0,2,1,1,2,3,1,1,3,3,0,3,2,3,4,4,2,3,3,3,2,1,4,588.6,"<div style=""color:green; font-size:75px;""><b>$1.00</b></div><br><br><br><br><table><tr><td><img src=static/images/oddball_down.png></td><td><img src=static/images/oddball_up.png></td><td><img src=static/images/oddball_down.png></td></tr></table>",81,1,,,,,,,,,,,,,,,,,,
,html-keyboard-response,106,351707,0.0-6.0-1.11-1.11,31,20,f,1.65953E+12,q,q,Only if I get the answer right,You win money,A fixed time limit,5,female,no,really hard on the eyes ,3,1,3,1,1,0,0,3,0,0,3,3,0,1,1,0,0,0,1,1,0,1,1,1,1,1,2,2,2,2,2,2,2,2,2,0,0,1,1,1,0,2,1,1,2,3,1,1,3,3,0,3,2,3,4,4,2,3,3,3,2,1,4,588.6,,q,,TRUE,0,11,down,up,1,w,0,0,1.65953E+12,,,FALSE,60,11,0.033333333,1,FALSE
,html-keyboard-response,107,352465,0.0-6.0-1.12-0.12,31,20,f,1.65953E+12,q,q,Only if I get the answer right,You win money,A fixed time limit,5,female,no,really hard on the eyes ,3,1,3,1,1,0,0,3,0,0,3,3,0,1,1,0,0,0,1,1,0,1,1,1,1,1,2,2,2,2,2,2,2,2,2,0,0,1,1,1,0,2,1,1,2,3,1,1,3,3,0,3,2,3,4,4,2,3,3,3,2,1,4,null,"<div style=""color:green; font-size:75px;""><b>$1.00</b></div><br><br><br><br><table><tr><td><img src=static/images/oddball_up.png></td><td><img src=static/images/oddball_down.png></td><td><img src=static/images/oddball_up.png></td></tr></table>",null,,,,,,,,,,,,,,,,,,,
,html-keyboard-response,108,352467,0.0-6.0-1.12-1.12,31,20,f,1.65953E+12,q,q,Only if I get the answer right,You win money,A fixed time limit,5,female,no,really hard on the eyes ,3,1,3,1,1,0,0,3,0,0,3,3,0,1,1,0,0,0,1,1,0,1,1,1,1,1,2,2,2,2,2,2,2,2,2,0,0,1,1,1,0,2,1,1,2,3,1,1,3,3,0,3,2,3,4,4,2,3,3,3,2,1,4,null,,null,,TRUE,0,12,up,down,1,w,0,0,1.65953E+12,,,FALSE,60,12,0.033333333,1,TRUE
,html-keyboard-response,109,352680,0.0-6.0-1.13-0.13,31,20,f,1.65953E+12,q,q,Only if I get the answer right,You win money,A fixed time limit,5,female,no,really hard on the eyes ,3,1,3,1,1,0,0,3,0,0,3,3,0,1,1,0,0,0,1,1,0,1,1,1,1,1,2,2,2,2,2,2,2,2,2,0,0,1,1,1,0,2,1,1,2,3,1,1,3,3,0,3,2,3,4,4,2,3,3,3,2,1,4,212.2,"<div style=""color:green; font-size:75px;""><b>$1.00</b></div><br><br><br><br><table><tr><td><img src=static/images/oddball_down.png></td><td><img src=static/images/oddball_up.png></td><td><img src=static/images/oddball_down.png></td></tr></table>",87,1,,,,,,,,,,,,,,,,,,
,html-keyboard-response,110,352682,0.0-6.0-1.13-1.13,31,20,f,1.65953E+12,q,q,Only if I get the answer right,You win money,A fixed time limit,5,female,no,really hard on the eyes ,3,1,3,1,1,0,0,3,0,0,3,3,0,1,1,0,0,0,1,1,0,1,1,1,1,1,2,2,2,2,2,2,2,2,2,0,0,1,1,1,0,2,1,1,2,3,1,1,3,3,0,3,2,3,4,4,2,3,3,3,2,1,4,212.2,,w,,TRUE,0,13,down,up,1,w,1,0,1.65953E+12,,,FALSE,60,13,0.033333333,1,FALSE
,html-keyboard-response,111,353281,0.0-6.0-1.14-0.14,31,20,f,1.65953E+12,q,q,Only if I get the answer right,You win money,A fixed time limit,5,female,no,really hard on the eyes ,3,1,3,1,1,0,0,3,0,0,3,3,0,1,1,0,0,0,1,1,0,1,1,1,1,1,2,2,2,2,2,2,2,2,2,0,0,1,1,1,0,2,1,1,2,3,1,1,3,3,0,3,2,3,4,4,2,3,3,3,2,1,4,597.7,"<div style=""color:green; font-size:75px;""><b>$1.00</b></div><br><br><br><br><table><tr><td><img src=static/images/oddball_up.png></td><td><img src=static/images/oddball_down.png></td><td><img src=static/images/oddball_up.png></td></tr></table>",87,1,,,,,,,,,,,,,,,,,,
,html-keyboard-response,112,353283,0.0-6.0-1.14-1.14,31,20,f,1.65953E+12,q,q,Only if I get the answer right,You win money,A fixed time limit,5,female,no,really hard on the eyes ,3,1,3,1,1,0,0,3,0,0,3,3,0,1,1,0,0,0,1,1,0,1,1,1,1,1,2,2,2,2,2,2,2,2,2,0,0,1,1,1,0,2,1,1,2,3,1,1,3,3,0,3,2,3,4,4,2,3,3,3,2,1,4,597.7,,w,,TRUE,0,14,up,down,1,w,1,0,1.65953E+12,,,FALSE,60,14,0.05,1,FALSE
,html-keyboard-response,113,354036,0.0-6.0-1.15-0.15,31,20,f,1.65953E+12,q,q,Only if I get the answer right,You win money,A fixed time limit,5,female,no,really hard on the eyes ,3,1,3,1,1,0,0,3,0,0,3,3,0,1,1,0,0,0,1,1,0,1,1,1,1,1,2,2,2,2,2,2,2,2,2,0,0,1,1,1,0,2,1,1,2,3,1,1,3,3,0,3,2,3,4,4,2,3,3,3,2,1,4,null,"<div style=""color:green; font-size:75px;""><b>$1.00</b></div><br><br><br><br><table><tr><td><img src=static/images/oddball_up.png></td><td><img src=static/images/oddball_down.png></td><td><img src=static/images/oddball_up.png></td></tr></table>",null,,,,,,,,,,,,,,,,,,,
,html-keyboard-response,114,354038,0.0-6.0-1.15-1.15,31,20,f,1.65953E+12,q,q,Only if I get the answer right,You win money,A fixed time limit,5,female,no,really hard on the eyes ,3,1,3,1,1,0,0,3,0,0,3,3,0,1,1,0,0,0,1,1,0,1,1,1,1,1,2,2,2,2,2,2,2,2,2,0,0,1,1,1,0,2,1,1,2,3,1,1,3,3,0,3,2,3,4,4,2,3,3,3,2,1,4,null,,null,,TRUE,0,15,up,down,1,w,0,0,1.65953E+12,,,FALSE,60,15,0.066666667,1,TRUE
,html-keyboard-response,115,354400,0.0-6.0-1.16-0.16,31,20,f,1.65953E+12,q,q,Only if I get the answer right,You win money,A fixed time limit,5,female,no,really hard on the eyes ,3,1,3,1,1,0,0,3,0,0,3,3,0,1,1,0,0,0,1,1,0,1,1,1,1,1,2,2,2,2,2,2,2,2,2,0,0,1,1,1,0,2,1,1,2,3,1,1,3,3,0,3,2,3,4,4,2,3,3,3,2,1,4,361.3,"<div style=""color:green; font-size:75px;""><b>$1.00</b></div><br><br><br><br><table><tr><td><img src=static/images/oddball_up.png></td><td><img src=static/images/oddball_down.png></td><td><img src=static/images/oddball_down.png></td></tr></table>",87,1,,,,,,,,,,,,,,,,,,
,html-keyboard-response,116,354404,0.0-6.0-1.16-1.16,31,20,f,1.65953E+12,q,q,Only if I get the answer right,You win money,A fixed time limit,5,female,no,really hard on the eyes ,3,1,3,1,1,0,0,3,0,0,3,3,0,1,1,0,0,0,1,1,0,1,1,1,1,1,2,2,2,2,2,2,2,2,2,0,0,1,1,1,0,2,1,1,2,3,1,1,3,3,0,3,2,3,4,4,2,3,3,3,2,1,4,361.3,,w,,TRUE,0,16,down,up,0,q,0,0,1.65953E+12,,,FALSE,60,16,0.066666667,1,FALSE
,html-keyboard-response,117,354945,0.0-6.0-1.17-0.17,31,20,f,1.65953E+12,q,q,Only if I get the answer right,You win money,A fixed time limit,5,female,no,really hard on the eyes ,3,1,3,1,1,0,0,3,0,0,3,3,0,1,1,0,0,0,1,1,0,1,1,1,1,1,2,2,2,2,2,2,2,2,2,0,0,1,1,1,0,2,1,1,2,3,1,1,3,3,0,3,2,3,4,4,2,3,3,3,2,1,4,540.3,"<div style=""color:green; font-size:75px;""><b>$1.00</b></div><br><br><br><br><table><tr><td><img src=static/images/oddball_up.png></td><td><img src=static/images/oddball_down.png></td><td><img src=static/images/oddball_down.png></td></tr></table>",81,1,,,,,,,,,,,,,,,,,,
,html-keyboard-response,118,354947,0.0-6.0-1.17-1.17,31,20,f,1.65953E+12,q,q,Only if I get the answer right,You win money,A fixed time limit,5,female,no,really hard on the eyes ,3,1,3,1,1,0,0,3,0,0,3,3,0,1,1,0,0,0,1,1,0,1,1,1,1,1,2,2,2,2,2,2,2,2,2,0,0,1,1,1,0,2,1,1,2,3,1,1,3,3,0,3,2,3,4,4,2,3,3,3,2,1,4,540.3,,q,,TRUE,0,17,down,up,0,q,1,0,1.65953E+12,,,FALSE,60,17,0.066666667,1,FALSE
,html-keyboard-response,119,355702,0.0-6.0-1.18-0.18,31,20,f,1.65953E+12,q,q,Only if I get the answer right,You win money,A fixed time limit,5,female,no,really hard on the eyes ,3,1,3,1,1,0,0,3,0,0,3,3,0,1,1,0,0,0,1,1,0,1,1,1,1,1,2,2,2,2,2,2,2,2,2,0,0,1,1,1,0,2,1,1,2,3,1,1,3,3,0,3,2,3,4,4,2,3,3,3,2,1,4,null,"<div style=""color:green; font-size:75px;""><b>$1.00</b></div><br><br><br><br><table><tr><td><img src=static/images/oddball_down.png></td><td><img src=static/images/oddball_up.png></td><td><img src=static/images/oddball_up.png></td></tr></table>",null,,,,,,,,,,,,,,,,,,,
,html-keyboard-response,120,355704,0.0-6.0-1.18-1.18,31,20,f,1.65953E+12,q,q,Only if I get the answer right,You win money,A fixed time limit,5,female,no,really hard on the eyes ,3,1,3,1,1,0,0,3,0,0,3,3,0,1,1,0,0,0,1,1,0,1,1,1,1,1,2,2,2,2,2,2,2,2,2,0,0,1,1,1,0,2,1,1,2,3,1,1,3,3,0,3,2,3,4,4,2,3,3,3,2,1,4,null,,null,,TRUE,0,18,up,down,0,q,0,0,1.65953E+12,,,FALSE,60,18,0.083333333,1,TRUE
,html-keyboard-response,121,355705,0.0-6.0-1.19-0.19,31,20,f,1.65953E+12,q,q,Only if I get the answer right,You win money,A fixed time limit,5,female,no,really hard on the eyes ,3,1,3,1,1,0,0,3,0,0,3,3,0,1,1,0,0,0,1,1,0,1,1,1,1,1,2,2,2,2,2,2,2,2,2,0,0,1,1,1,0,2,1,1,2,3,1,1,3,3,0,3,2,3,4,4,2,3,3,3,2,1,4,0,"<div style=""color:green; font-size:75px;""><b>$1.00</b></div><br><br><br><br><table><tr><td><img src=static/images/oddball_up.png></td><td><img src=static/images/oddball_up.png></td><td><img src=static/images/oddball_down.png></td></tr></table>",81,1,,,,,,,,,,,,,,,,,,
,html-keyboard-response,122,355706,0.0-6.0-1.19-1.19,31,20,f,1.65953E+12,q,q,Only if I get the answer right,You win money,A fixed time limit,5,female,no,really hard on the eyes ,3,1,3,1,1,0,0,3,0,0,3,3,0,1,1,0,0,0,1,1,0,1,1,1,1,1,2,2,2,2,2,2,2,2,2,0,0,1,1,1,0,2,1,1,2,3,1,1,3,3,0,3,2,3,4,4,2,3,3,3,2,1,4,0,,q,,TRUE,0,19,up,down,2,e,0,0,1.65953E+12,,,FALSE,60,19,0.083333333,1,FALSE
,html-keyboard-response,123,356425,0.0-6.0-1.20-0.20,31,20,f,1.65953E+12,q,q,Only if I get the answer right,You win money,A fixed time limit,5,female,no,really hard on the eyes ,3,1,3,1,1,0,0,3,0,0,3,3,0,1,1,0,0,0,1,1,0,1,1,1,1,1,2,2,2,2,2,2,2,2,2,0,0,1,1,1,0,2,1,1,2,3,1,1,3,3,0,3,2,3,4,4,2,3,3,3,2,1,4,717.9,"<div style=""color:green; font-size:75px;""><b>$1.00</b></div><br><br><br><br><table><tr><td><img src=static/images/oddball_up.png></td><td><img src=static/images/oddball_down.png></td><td><img src=static/images/oddball_up.png></td></tr></table>",87,1,,,,,,,,,,,,,,,,,,
,html-keyboard-response,124,356428,0.0-6.0-1.20-1.20,31,20,f,1.65953E+12,q,q,Only if I get the answer right,You win money,A fixed time limit,5,female,no,really hard on the eyes ,3,1,3,1,1,0,0,3,0,0,3,3,0,1,1,0,0,0,1,1,0,1,1,1,1,1,2,2,2,2,2,2,2,2,2,0,0,1,1,1,0,2,1,1,2,3,1,1,3,3,0,3,2,3,4,4,2,3,3,3,2,1,4,717.9,,w,,TRUE,0,20,up,down,1,w,1,0,1.65953E+12,,,FALSE,60,20,0.083333333,1,FALSE
,html-keyboard-response,125,357191,0.0-6.0-1.21-0.21,31,20,f,1.65953E+12,q,q,Only if I get the answer right,You win money,A fixed time limit,5,female,no,really hard on the eyes ,3,1,3,1,1,0,0,3,0,0,3,3,0,1,1,0,0,0,1,1,0,1,1,1,1,1,2,2,2,2,2,2,2,2,2,0,0,1,1,1,0,2,1,1,2,3,1,1,3,3,0,3,2,3,4,4,2,3,3,3,2,1,4,null,"<div style=""color:green; font-size:75px;""><b>$1.00</b></div><br><br><br><br><table><tr><td><img src=static/images/oddball_down.png></td><td><img src=static/images/oddball_down.png></td><td><img src=static/images/oddball_up.png></td></tr></table>",null,,,,,,,,,,,,,,,,,,,
,html-keyboard-response,126,357193,0.0-6.0-1.21-1.21,31,20,f,1.65953E+12,q,q,Only if I get the answer right,You win money,A fixed time limit,5,female,no,really hard on the eyes ,3,1,3,1,1,0,0,3,0,0,3,3,0,1,1,0,0,0,1,1,0,1,1,1,1,1,2,2,2,2,2,2,2,2,2,0,0,1,1,1,0,2,1,1,2,3,1,1,3,3,0,3,2,3,4,4,2,3,3,3,2,1,4,null,,null,,TRUE,0,21,down,up,2,e,0,0,1.65953E+12,,,FALSE,60,21,0.1,1,TRUE
,html-keyboard-response,127,357232,0.0-6.0-1.22-0.22,31,20,f,1.65953E+12,q,q,Only if I get the answer right,You win money,A fixed time limit,5,female,no,really hard on the eyes ,3,1,3,1,1,0,0,3,0,0,3,3,0,1,1,0,0,0,1,1,0,1,1,1,1,1,2,2,2,2,2,2,2,2,2,0,0,1,1,1,0,2,1,1,2,3,1,1,3,3,0,3,2,3,4,4,2,3,3,3,2,1,4,38.3,"<div style=""color:green; font-size:75px;""><b>$1.00</b></div><br><br><br><br><table><tr><td><img src=static/images/oddball_down.png></td><td><img src=static/images/oddball_down.png></td><td><img src=static/images/oddball_up.png></td></tr></table>",69,1,,,,,,,,,,,,,,,,,,
,html-keyboard-response,128,357235,0.0-6.0-1.22-1.22,31,20,f,1.65953E+12,q,q,Only if I get the answer right,You win money,A fixed time limit,5,female,no,really hard on the eyes ,3,1,3,1,1,0,0,3,0,0,3,3,0,1,1,0,0,0,1,1,0,1,1,1,1,1,2,2,2,2,2,2,2,2,2,0,0,1,1,1,0,2,1,1,2,3,1,1,3,3,0,3,2,3,4,4,2,3,3,3,2,1,4,38.3,,e,,TRUE,0,22,down,up,2,e,1,0,1.65953E+12,,,FALSE,60,22,0.1,1,FALSE
,html-keyboard-response,129,357990,0.0-6.0-1.23-0.23,31,20,f,1.65953E+12,q,q,Only if I get the answer right,You win money,A fixed time limit,5,female,no,really hard on the eyes ,3,1,3,1,1,0,0,3,0,0,3,3,0,1,1,0,0,0,1,1,0,1,1,1,1,1,2,2,2,2,2,2,2,2,2,0,0,1,1,1,0,2,1,1,2,3,1,1,3,3,0,3,2,3,4,4,2,3,3,3,2,1,4,null,"<div style=""color:green; font-size:75px;""><b>$1.00</b></div><br><br><br><br><table><tr><td><img src=static/images/oddball_up.png></td><td><img src=static/images/oddball_down.png></td><td><img src=static/images/oddball_down.png></td></tr></table>",null,,,,,,,,,,,,,,,,,,,
,html-keyboard-response,130,357992,0.0-6.0-1.23-1.23,31,20,f,1.65953E+12,q,q,Only if I get the answer right,You win money,A fixed time limit,5,female,no,really hard on the eyes ,3,1,3,1,1,0,0,3,0,0,3,3,0,1,1,0,0,0,1,1,0,1,1,1,1,1,2,2,2,2,2,2,2,2,2,0,0,1,1,1,0,2,1,1,2,3,1,1,3,3,0,3,2,3,4,4,2,3,3,3,2,1,4,null,,null,,TRUE,0,23,down,up,0,q,0,0,1.65953E+12,,,FALSE,60,23,0.116666667,1,TRUE
,html-keyboard-response,131,358080,0.0-6.0-1.24-0.24,31,20,f,1.65953E+12,q,q,Only if I get the answer right,You win money,A fixed time limit,5,female,no,really hard on the eyes ,3,1,3,1,1,0,0,3,0,0,3,3,0,1,1,0,0,0,1,1,0,1,1,1,1,1,2,2,2,2,2,2,2,2,2,0,0,1,1,1,0,2,1,1,2,3,1,1,3,3,0,3,2,3,4,4,2,3,3,3,2,1,4,87.40000001,"<div style=""color:green; font-size:75px;""><b>$1.00</b></div><br><br><br><br><table><tr><td><img src=static/images/oddball_down.png></td><td><img src=static/images/oddball_up.png></td><td><img src=static/images/oddball_up.png></td></tr></table>",81,1,,,,,,,,,,,,,,,,,,
,html-keyboard-response,132,358083,0.0-6.0-1.24-1.24,31,20,f,1.65953E+12,q,q,Only if I get the answer right,You win money,A fixed time limit,5,female,no,really hard on the eyes ,3,1,3,1,1,0,0,3,0,0,3,3,0,1,1,0,0,0,1,1,0,1,1,1,1,1,2,2,2,2,2,2,2,2,2,0,0,1,1,1,0,2,1,1,2,3,1,1,3,3,0,3,2,3,4,4,2,3,3,3,2,1,4,87.40000001,,q,,TRUE,0,24,up,down,0,q,1,0,1.65953E+12,,,FALSE,60,24,0.116666667,1,FALSE
,html-keyboard-response,133,358843,0.0-6.0-1.25-0.25,31,20,f,1.65953E+12,q,q,Only if I get the answer right,You win money,A fixed time limit,5,female,no,really hard on the eyes ,3,1,3,1,1,0,0,3,0,0,3,3,0,1,1,0,0,0,1,1,0,1,1,1,1,1,2,2,2,2,2,2,2,2,2,0,0,1,1,1,0,2,1,1,2,3,1,1,3,3,0,3,2,3,4,4,2,3,3,3,2,1,4,null,"<div style=""color:green; font-size:75px;""><b>$1.00</b></div><br><br><br><br><table><tr><td><img src=static/images/oddball_up.png></td><td><img src=static/images/oddball_up.png></td><td><img src=static/images/oddball_down.png></td></tr></table>",null,,,,,,,,,,,,,,,,,,,
,html-keyboard-response,134,358845,0.0-6.0-1.25-1.25,31,20,f,1.65953E+12,q,q,Only if I get the answer right,You win money,A fixed time limit,5,female,no,really hard on the eyes ,3,1,3,1,1,0,0,3,0,0,3,3,0,1,1,0,0,0,1,1,0,1,1,1,1,1,2,2,2,2,2,2,2,2,2,0,0,1,1,1,0,2,1,1,2,3,1,1,3,3,0,3,2,3,4,4,2,3,3,3,2,1,4,null,,null,,TRUE,0,25,up,down,2,e,0,0,1.65953E+12,,,FALSE,60,25,0.133333333,1,TRUE
,html-keyboard-response,135,358880,0.0-6.0-1.26-0.26,31,20,f,1.65953E+12,q,q,Only if I get the answer right,You win money,A fixed time limit,5,female,no,really hard on the eyes ,3,1,3,1,1,0,0,3,0,0,3,3,0,1,1,0,0,0,1,1,0,1,1,1,1,1,2,2,2,2,2,2,2,2,2,0,0,1,1,1,0,2,1,1,2,3,1,1,3,3,0,3,2,3,4,4,2,3,3,3,2,1,4,35,"<div style=""color:green; font-size:75px;""><b>$1.00</b></div><br><br><br><br><table><tr><td><img src=static/images/oddball_up.png></td><td><img src=static/images/oddball_down.png></td><td><img src=static/images/oddball_down.png></td></tr></table>",69,1,,,,,,,,,,,,,,,,,,
,html-keyboard-response,136,358882,0.0-6.0-1.26-1.26,31,20,f,1.65953E+12,q,q,Only if I get the answer right,You win money,A fixed time limit,5,female,no,really hard on the eyes ,3,1,3,1,1,0,0,3,0,0,3,3,0,1,1,0,0,0,1,1,0,1,1,1,1,1,2,2,2,2,2,2,2,2,2,0,0,1,1,1,0,2,1,1,2,3,1,1,3,3,0,3,2,3,4,4,2,3,3,3,2,1,4,35,,e,,TRUE,0,26,down,up,0,q,0,0,1.65953E+12,,,FALSE,60,26,0.133333333,1,FALSE
,html-keyboard-response,137,359645,0.0-6.0-1.27-0.27,31,20,f,1.65953E+12,q,q,Only if I get the answer right,You win money,A fixed time limit,5,female,no,really hard on the eyes ,3,1,3,1,1,0,0,3,0,0,3,3,0,1,1,0,0,0,1,1,0,1,1,1,1,1,2,2,2,2,2,2,2,2,2,0,0,1,1,1,0,2,1,1,2,3,1,1,3,3,0,3,2,3,4,4,2,3,3,3,2,1,4,null,"<div style=""color:green; font-size:75px;""><b>$1.00</b></div><br><br><br><br><table><tr><td><img src=static/images/oddball_down.png></td><td><img src=static/images/oddball_down.png></td><td><img src=static/images/oddball_up.png></td></tr></table>",null,,,,,,,,,,,,,,,,,,,
,html-keyboard-response,138,359647,0.0-6.0-1.27-1.27,31,20,f,1.65953E+12,q,q,Only if I get the answer right,You win money,A fixed time limit,5,female,no,really hard on the eyes ,3,1,3,1,1,0,0,3,0,0,3,3,0,1,1,0,0,0,1,1,0,1,1,1,1,1,2,2,2,2,2,2,2,2,2,0,0,1,1,1,0,2,1,1,2,3,1,1,3,3,0,3,2,3,4,4,2,3,3,3,2,1,4,null,,null,,TRUE,0,27,down,up,2,e,0,0,1.65953E+12,,,FALSE,60,27,0.133333333,1,TRUE
,html-keyboard-response,139,359768,0.0-6.0-1.28-0.28,31,20,f,1.65953E+12,q,q,Only if I get the answer right,You win money,A fixed time limit,5,female,no,really hard on the eyes ,3,1,3,1,1,0,0,3,0,0,3,3,0,1,1,0,0,0,1,1,0,1,1,1,1,1,2,2,2,2,2,2,2,2,2,0,0,1,1,1,0,2,1,1,2,3,1,1,3,3,0,3,2,3,4,4,2,3,3,3,2,1,4,120.8,"<div style=""color:green; font-size:75px;""><b>$1.00</b></div><br><br><br><br><table><tr><td><img src=static/images/oddball_down.png></td><td><img src=static/images/oddball_down.png></td><td><img src=static/images/oddball_up.png></td></tr></table>",69,1,,,,,,,,,,,,,,,,,,
,html-keyboard-response,140,359772,0.0-6.0-1.28-1.28,31,20,f,1.65953E+12,q,q,Only if I get the answer right,You win money,A fixed time limit,5,female,no,really hard on the eyes ,3,1,3,1,1,0,0,3,0,0,3,3,0,1,1,0,0,0,1,1,0,1,1,1,1,1,2,2,2,2,2,2,2,2,2,0,0,1,1,1,0,2,1,1,2,3,1,1,3,3,0,3,2,3,4,4,2,3,3,3,2,1,4,120.8,,e,,TRUE,0,28,down,up,2,e,1,0,1.65953E+12,,,FALSE,60,28,0.133333333,1,FALSE
,html-keyboard-response,141,360528,0.0-6.0-1.29-0.29,31,20,f,1.65953E+12,q,q,Only if I get the answer right,You win money,A fixed time limit,5,female,no,really hard on the eyes ,3,1,3,1,1,0,0,3,0,0,3,3,0,1,1,0,0,0,1,1,0,1,1,1,1,1,2,2,2,2,2,2,2,2,2,0,0,1,1,1,0,2,1,1,2,3,1,1,3,3,0,3,2,3,4,4,2,3,3,3,2,1,4,755.7,"<div style=""color:green; font-size:75px;""><b>$1.00</b></div><br><br><br><br><table><tr><td><img src=static/images/oddball_down.png></td><td><img src=static/images/oddball_up.png></td><td><img src=static/images/oddball_up.png></td></tr></table>",81,1,,,,,,,,,,,,,,,,,,
,html-keyboard-response,142,360531,0.0-6.0-1.29-1.29,31,20,f,1.65953E+12,q,q,Only if I get the answer right,You win money,A fixed time limit,5,female,no,really hard on the eyes ,3,1,3,1,1,0,0,3,0,0,3,3,0,1,1,0,0,0,1,1,0,1,1,1,1,1,2,2,2,2,2,2,2,2,2,0,0,1,1,1,0,2,1,1,2,3,1,1,3,3,0,3,2,3,4,4,2,3,3,3,2,1,4,755.7,,q,,TRUE,0,29,up,down,0,q,1,0,1.65953E+12,,,FALSE,60,29,0.15,1,FALSE
,html-keyboard-response,143,361283,0.0-6.0-1.30-0.30,31,20,f,1.65953E+12,q,q,Only if I get the answer right,You win money,A fixed time limit,5,female,no,really hard on the eyes ,3,1,3,1,1,0,0,3,0,0,3,3,0,1,1,0,0,0,1,1,0,1,1,1,1,1,2,2,2,2,2,2,2,2,2,0,0,1,1,1,0,2,1,1,2,3,1,1,3,3,0,3,2,3,4,4,2,3,3,3,2,1,4,null,"<div style=""color:green; font-size:75px;""><b>$1.00</b></div><br><br><br><br><table><tr><td><img src=static/images/oddball_down.png></td><td><img src=static/images/oddball_up.png></td><td><img src=static/images/oddball_down.png></td></tr></table>",null,,,,,,,,,,,,,,,,,,,
,html-keyboard-response,144,361285,0.0-6.0-1.30-1.30,31,20,f,1.65953E+12,q,q,Only if I get the answer right,You win money,A fixed time limit,5,female,no,really hard on the eyes ,3,1,3,1,1,0,0,3,0,0,3,3,0,1,1,0,0,0,1,1,0,1,1,1,1,1,2,2,2,2,2,2,2,2,2,0,0,1,1,1,0,2,1,1,2,3,1,1,3,3,0,3,2,3,4,4,2,3,3,3,2,1,4,null,,null,,TRUE,0,30,down,up,1,w,0,0,1.65953E+12,,,FALSE,60,30,0.166666667,1,TRUE
,html-keyboard-response,145,361560,0.0-6.0-1.31-0.31,31,20,f,1.65953E+12,q,q,Only if I get the answer right,You win money,A fixed time limit,5,female,no,really hard on the eyes ,3,1,3,1,1,0,0,3,0,0,3,3,0,1,1,0,0,0,1,1,0,1,1,1,1,1,2,2,2,2,2,2,2,2,2,0,0,1,1,1,0,2,1,1,2,3,1,1,3,3,0,3,2,3,4,4,2,3,3,3,2,1,4,274.9,"<div style=""color:green; font-size:75px;""><b>$1.00</b></div><br><br><br><br><table><tr><td><img src=static/images/oddball_up.png></td><td><img src=static/images/oddball_up.png></td><td><img src=static/images/oddball_down.png></td></tr></table>",81,1,,,,,,,,,,,,,,,,,,
,html-keyboard-response,146,361563,0.0-6.0-1.31-1.31,31,20,f,1.65953E+12,q,q,Only if I get the answer right,You win money,A fixed time limit,5,female,no,really hard on the eyes ,3,1,3,1,1,0,0,3,0,0,3,3,0,1,1,0,0,0,1,1,0,1,1,1,1,1,2,2,2,2,2,2,2,2,2,0,0,1,1,1,0,2,1,1,2,3,1,1,3,3,0,3,2,3,4,4,2,3,3,3,2,1,4,274.9,,q,,TRUE,0,31,up,down,2,e,0,0,1.65953E+12,,,FALSE,60,31,0.166666667,1,FALSE
,html-keyboard-response,147,362317,0.0-6.0-1.32-0.32,31,20,f,1.65953E+12,q,q,Only if I get the answer right,You win money,A fixed time limit,5,female,no,really hard on the eyes ,3,1,3,1,1,0,0,3,0,0,3,3,0,1,1,0,0,0,1,1,0,1,1,1,1,1,2,2,2,2,2,2,2,2,2,0,0,1,1,1,0,2,1,1,2,3,1,1,3,3,0,3,2,3,4,4,2,3,3,3,2,1,4,null,"<div style=""color:green; font-size:75px;""><b>$1.00</b></div><br><br><br><br><table><tr><td><img src=static/images/oddball_down.png></td><td><img src=static/images/oddball_up.png></td><td><img src=static/images/oddball_down.png></td></tr></table>",null,,,,,,,,,,,,,,,,,,,
,html-keyboard-response,148,362320,0.0-6.0-1.32-1.32,31,20,f,1.65953E+12,q,q,Only if I get the answer right,You win money,A fixed time limit,5,female,no,really hard on the eyes ,3,1,3,1,1,0,0,3,0,0,3,3,0,1,1,0,0,0,1,1,0,1,1,1,1,1,2,2,2,2,2,2,2,2,2,0,0,1,1,1,0,2,1,1,2,3,1,1,3,3,0,3,2,3,4,4,2,3,3,3,2,1,4,null,,null,,TRUE,0,32,down,up,1,w,0,0,1.65953E+12,,,FALSE,60,32,0.166666667,1,TRUE
,html-keyboard-response,149,363085,0.0-6.0-1.33-0.33,31,20,f,1.65953E+12,q,q,Only if I get the answer right,You win money,A fixed time limit,5,female,no,really hard on the eyes ,3,1,3,1,1,0,0,3,0,0,3,3,0,1,1,0,0,0,1,1,0,1,1,1,1,1,2,2,2,2,2,2,2,2,2,0,0,1,1,1,0,2,1,1,2,3,1,1,3,3,0,3,2,3,4,4,2,3,3,3,2,1,4,null,"<div style=""color:green; font-size:75px;""><b>$1.00</b></div><br><br><br><br><table><tr><td><img src=static/images/oddball_down.png></td><td><img src=static/images/oddball_up.png></td><td><img src=static/images/oddball_up.png></td></tr></table>",null,,,,,,,,,,,,,,,,,,,
,html-keyboard-response,150,363089,0.0-6.0-1.33-1.33,31,20,f,1.65953E+12,q,q,Only if I get the answer right,You win money,A fixed time limit,5,female,no,really hard on the eyes ,3,1,3,1,1,0,0,3,0,0,3,3,0,1,1,0,0,0,1,1,0,1,1,1,1,1,2,2,2,2,2,2,2,2,2,0,0,1,1,1,0,2,1,1,2,3,1,1,3,3,0,3,2,3,4,4,2,3,3,3,2,1,4,null,,null,,TRUE,0,33,up,down,0,q,0,0,1.65953E+12,,,FALSE,60,33,0.166666667,1,TRUE
,html-keyboard-response,151,363852,0.0-6.0-1.34-0.34,31,20,f,1.65953E+12,q,q,Only if I get the answer right,You win money,A fixed time limit,5,female,no,really hard on the eyes ,3,1,3,1,1,0,0,3,0,0,3,3,0,1,1,0,0,0,1,1,0,1,1,1,1,1,2,2,2,2,2,2,2,2,2,0,0,1,1,1,0,2,1,1,2,3,1,1,3,3,0,3,2,3,4,4,2,3,3,3,2,1,4,null,"<div style=""color:green; font-size:75px;""><b>$1.00</b></div><br><br><br><br><table><tr><td><img src=static/images/oddball_up.png></td><td><img src=static/images/oddball_down.png></td><td><img src=static/images/oddball_up.png></td></tr></table>",null,,,,,,,,,,,,,,,,,,,
,html-keyboard-response,152,363857,0.0-6.0-1.34-1.34,31,20,f,1.65953E+12,q,q,Only if I get the answer right,You win money,A fixed time limit,5,female,no,really hard on the eyes ,3,1,3,1,1,0,0,3,0,0,3,3,0,1,1,0,0,0,1,1,0,1,1,1,1,1,2,2,2,2,2,2,2,2,2,0,0,1,1,1,0,2,1,1,2,3,1,1,3,3,0,3,2,3,4,4,2,3,3,3,2,1,4,null,,null,,TRUE,0,34,up,down,1,w,0,0,1.65953E+12,,,FALSE,60,34,0.166666667,1,TRUE
,html-keyboard-response,153,364024,0.0-6.0-1.35-0.35,31,20,f,1.65953E+12,q,q,Only if I get the answer right,You win money,A fixed time limit,5,female,no,really hard on the eyes ,3,1,3,1,1,0,0,3,0,0,3,3,0,1,1,0,0,0,1,1,0,1,1,1,1,1,2,2,2,2,2,2,2,2,2,0,0,1,1,1,0,2,1,1,2,3,1,1,3,3,0,3,2,3,4,4,2,3,3,3,2,1,4,166.9,"<div style=""color:green; font-size:75px;""><b>$1.00</b></div><br><br><br><br><table><tr><td><img src=static/images/oddball_up.png></td><td><img src=static/images/oddball_down.png></td><td><img src=static/images/oddball_up.png></td></tr></table>",87,1,,,,,,,,,,,,,,,,,,
,html-keyboard-response,154,364026,0.0-6.0-1.35-1.35,31,20,f,1.65953E+12,q,q,Only if I get the answer right,You win money,A fixed time limit,5,female,no,really hard on the eyes ,3,1,3,1,1,0,0,3,0,0,3,3,0,1,1,0,0,0,1,1,0,1,1,1,1,1,2,2,2,2,2,2,2,2,2,0,0,1,1,1,0,2,1,1,2,3,1,1,3,3,0,3,2,3,4,4,2,3,3,3,2,1,4,166.9,,w,,TRUE,0,35,up,down,1,w,1,0,1.65953E+12,,,FALSE,60,35,0.166666667,1,FALSE
,html-keyboard-response,155,364788,0.0-6.0-1.36-0.36,31,20,f,1.65953E+12,q,q,Only if I get the answer right,You win money,A fixed time limit,5,female,no,really hard on the eyes ,3,1,3,1,1,0,0,3,0,0,3,3,0,1,1,0,0,0,1,1,0,1,1,1,1,1,2,2,2,2,2,2,2,2,2,0,0,1,1,1,0,2,1,1,2,3,1,1,3,3,0,3,2,3,4,4,2,3,3,3,2,1,4,null,"<div style=""color:green; font-size:75px;""><b>$1.00</b></div><br><br><br><br><table><tr><td><img src=static/images/oddball_up.png></td><td><img src=static/images/oddball_down.png></td><td><img src=static/images/oddball_up.png></td></tr></table>",null,,,,,,,,,,,,,,,,,,,
,html-keyboard-response,156,364789,0.0-6.0-1.36-1.36,31,20,f,1.65953E+12,q,q,Only if I get the answer right,You win money,A fixed time limit,5,female,no,really hard on the eyes ,3,1,3,1,1,0,0,3,0,0,3,3,0,1,1,0,0,0,1,1,0,1,1,1,1,1,2,2,2,2,2,2,2,2,2,0,0,1,1,1,0,2,1,1,2,3,1,1,3,3,0,3,2,3,4,4,2,3,3,3,2,1,4,null,,null,,TRUE,0,36,up,down,1,w,0,0,1.65953E+12,,,FALSE,60,36,0.183333333,1,TRUE
,html-keyboard-response,157,364840,0.0-6.0-1.37-0.37,31,20,f,1.65953E+12,q,q,Only if I get the answer right,You win money,A fixed time limit,5,female,no,really hard on the eyes ,3,1,3,1,1,0,0,3,0,0,3,3,0,1,1,0,0,0,1,1,0,1,1,1,1,1,2,2,2,2,2,2,2,2,2,0,0,1,1,1,0,2,1,1,2,3,1,1,3,3,0,3,2,3,4,4,2,3,3,3,2,1,4,50.5,"<div style=""color:green; font-size:75px;""><b>$1.00</b></div><br><br><br><br><table><tr><td><img src=static/images/oddball_up.png></td><td><img src=static/images/oddball_down.png></td><td><img src=static/images/oddball_down.png></td></tr></table>",87,1,,,,,,,,,,,,,,,,,,
,html-keyboard-response,158,364842,0.0-6.0-1.37-1.37,31,20,f,1.65953E+12,q,q,Only if I get the answer right,You win money,A fixed time limit,5,female,no,really hard on the eyes ,3,1,3,1,1,0,0,3,0,0,3,3,0,1,1,0,0,0,1,1,0,1,1,1,1,1,2,2,2,2,2,2,2,2,2,0,0,1,1,1,0,2,1,1,2,3,1,1,3,3,0,3,2,3,4,4,2,3,3,3,2,1,4,50.5,,w,,TRUE,0,37,down,up,0,q,0,0,1.65953E+12,,,FALSE,60,37,0.183333333,1,FALSE
,html-keyboard-response,159,365424,0.0-6.0-1.38-0.38,31,20,f,1.65953E+12,q,q,Only if I get the answer right,You win money,A fixed time limit,5,female,no,really hard on the eyes ,3,1,3,1,1,0,0,3,0,0,3,3,0,1,1,0,0,0,1,1,0,1,1,1,1,1,2,2,2,2,2,2,2,2,2,0,0,1,1,1,0,2,1,1,2,3,1,1,3,3,0,3,2,3,4,4,2,3,3,3,2,1,4,581.9,"<div style=""color:green; font-size:75px;""><b>$1.00</b></div><br><br><br><br><table><tr><td><img src=static/images/oddball_up.png></td><td><img src=static/images/oddball_down.png></td><td><img src=static/images/oddball_up.png></td></tr></table>",87,1,,,,,,,,,,,,,,,,,,
,html-keyboard-response,160,365427,0.0-6.0-1.38-1.38,31,20,f,1.65953E+12,q,q,Only if I get the answer right,You win money,A fixed time limit,5,female,no,really hard on the eyes ,3,1,3,1,1,0,0,3,0,0,3,3,0,1,1,0,0,0,1,1,0,1,1,1,1,1,2,2,2,2,2,2,2,2,2,0,0,1,1,1,0,2,1,1,2,3,1,1,3,3,0,3,2,3,4,4,2,3,3,3,2,1,4,581.9,,w,,TRUE,0,38,up,down,1,w,1,0,1.65953E+12,,,FALSE,60,38,0.183333333,1,FALSE
,html-keyboard-response,161,366024,0.0-6.0-1.39-0.39,31,20,f,1.65953E+12,q,q,Only if I get the answer right,You win money,A fixed time limit,5,female,no,really hard on the eyes ,3,1,3,1,1,0,0,3,0,0,3,3,0,1,1,0,0,0,1,1,0,1,1,1,1,1,2,2,2,2,2,2,2,2,2,0,0,1,1,1,0,2,1,1,2,3,1,1,3,3,0,3,2,3,4,4,2,3,3,3,2,1,4,596.8,"<div style=""color:green; font-size:75px;""><b>$1.00</b></div><br><br><br><br><table><tr><td><img src=static/images/oddball_up.png></td><td><img src=static/images/oddball_up.png></td><td><img src=static/images/oddball_down.png></td></tr></table>",69,1,,,,,,,,,,,,,,,,,,
,html-keyboard-response,162,366027,0.0-6.0-1.39-1.39,31,20,f,1.65953E+12,q,q,Only if I get the answer right,You win money,A fixed time limit,5,female,no,really hard on the eyes ,3,1,3,1,1,0,0,3,0,0,3,3,0,1,1,0,0,0,1,1,0,1,1,1,1,1,2,2,2,2,2,2,2,2,2,0,0,1,1,1,0,2,1,1,2,3,1,1,3,3,0,3,2,3,4,4,2,3,3,3,2,1,4,596.8,,e,,TRUE,0,39,up,down,2,e,1,0,1.65953E+12,,,FALSE,60,39,0.2,1,FALSE
,html-keyboard-response,163,366712,0.0-6.0-1.40-0.40,31,20,f,1.65953E+12,q,q,Only if I get the answer right,You win money,A fixed time limit,5,female,no,really hard on the eyes ,3,1,3,1,1,0,0,3,0,0,3,3,0,1,1,0,0,0,1,1,0,1,1,1,1,1,2,2,2,2,2,2,2,2,2,0,0,1,1,1,0,2,1,1,2,3,1,1,3,3,0,3,2,3,4,4,2,3,3,3,2,1,4,685.2,"<div style=""color:green; font-size:75px;""><b>$1.00</b></div><br><br><br><br><table><tr><td><img src=static/images/oddball_up.png></td><td><img src=static/images/oddball_up.png></td><td><img src=static/images/oddball_down.png></td></tr></table>",69,1,,,,,,,,,,,,,,,,,,
,html-keyboard-response,164,366716,0.0-6.0-1.40-1.40,31,20,f,1.65953E+12,q,q,Only if I get the answer right,You win money,A fixed time limit,5,female,no,really hard on the eyes ,3,1,3,1,1,0,0,3,0,0,3,3,0,1,1,0,0,0,1,1,0,1,1,1,1,1,2,2,2,2,2,2,2,2,2,0,0,1,1,1,0,2,1,1,2,3,1,1,3,3,0,3,2,3,4,4,2,3,3,3,2,1,4,685.2,,e,,TRUE,0,40,up,down,2,e,1,0,1.65953E+12,,,FALSE,60,40,0.216666667,1,FALSE
,html-keyboard-response,165,367232,0.0-6.0-1.41-0.41,31,20,f,1.65953E+12,q,q,Only if I get the answer right,You win money,A fixed time limit,5,female,no,really hard on the eyes ,3,1,3,1,1,0,0,3,0,0,3,3,0,1,1,0,0,0,1,1,0,1,1,1,1,1,2,2,2,2,2,2,2,2,2,0,0,1,1,1,0,2,1,1,2,3,1,1,3,3,0,3,2,3,4,4,2,3,3,3,2,1,4,515.9,"<div style=""color:green; font-size:75px;""><b>$1.00</b></div><br><br><br><br><table><tr><td><img src=static/images/oddball_down.png></td><td><img src=static/images/oddball_up.png></td><td><img src=static/images/oddball_down.png></td></tr></table>",81,1,,,,,,,,,,,,,,,,,,
,html-keyboard-response,166,367235,0.0-6.0-1.41-1.41,31,20,f,1.65953E+12,q,q,Only if I get the answer right,You win money,A fixed time limit,5,female,no,really hard on the eyes ,3,1,3,1,1,0,0,3,0,0,3,3,0,1,1,0,0,0,1,1,0,1,1,1,1,1,2,2,2,2,2,2,2,2,2,0,0,1,1,1,0,2,1,1,2,3,1,1,3,3,0,3,2,3,4,4,2,3,3,3,2,1,4,515.9,,q,,TRUE,0,41,down,up,1,w,0,0,1.65953E+12,,,FALSE,60,41,0.233333333,1,FALSE
,html-keyboard-response,167,367848,0.0-6.0-1.42-0.42,31,20,f,1.65953E+12,q,q,Only if I get the answer right,You win money,A fixed time limit,5,female,no,really hard on the eyes ,3,1,3,1,1,0,0,3,0,0,3,3,0,1,1,0,0,0,1,1,0,1,1,1,1,1,2,2,2,2,2,2,2,2,2,0,0,1,1,1,0,2,1,1,2,3,1,1,3,3,0,3,2,3,4,4,2,3,3,3,2,1,4,613.1,"<div style=""color:green; font-size:75px;""><b>$1.00</b></div><br><br><br><br><table><tr><td><img src=static/images/oddball_up.png></td><td><img src=static/images/oddball_up.png></td><td><img src=static/images/oddball_down.png></td></tr></table>",69,1,,,,,,,,,,,,,,,,,,
,html-keyboard-response,168,367852,0.0-6.0-1.42-1.42,31,20,f,1.65953E+12,q,q,Only if I get the answer right,You win money,A fixed time limit,5,female,no,really hard on the eyes ,3,1,3,1,1,0,0,3,0,0,3,3,0,1,1,0,0,0,1,1,0,1,1,1,1,1,2,2,2,2,2,2,2,2,2,0,0,1,1,1,0,2,1,1,2,3,1,1,3,3,0,3,2,3,4,4,2,3,3,3,2,1,4,613.1,,e,,TRUE,0,42,up,down,2,e,1,0,1.65953E+12,,,FALSE,60,42,0.233333333,1,FALSE
,html-keyboard-response,169,368488,0.0-6.0-1.43-0.43,31,20,f,1.65953E+12,q,q,Only if I get the answer right,You win money,A fixed time limit,5,female,no,really hard on the eyes ,3,1,3,1,1,0,0,3,0,0,3,3,0,1,1,0,0,0,1,1,0,1,1,1,1,1,2,2,2,2,2,2,2,2,2,0,0,1,1,1,0,2,1,1,2,3,1,1,3,3,0,3,2,3,4,4,2,3,3,3,2,1,4,635.9,"<div style=""color:green; font-size:75px;""><b>$1.00</b></div><br><br><br><br><table><tr><td><img src=static/images/oddball_down.png></td><td><img src=static/images/oddball_up.png></td><td><img src=static/images/oddball_up.png></td></tr></table>",81,1,,,,,,,,,,,,,,,,,,
,html-keyboard-response,170,368491,0.0-6.0-1.43-1.43,31,20,f,1.65953E+12,q,q,Only if I get the answer right,You win money,A fixed time limit,5,female,no,really hard on the eyes ,3,1,3,1,1,0,0,3,0,0,3,3,0,1,1,0,0,0,1,1,0,1,1,1,1,1,2,2,2,2,2,2,2,2,2,0,0,1,1,1,0,2,1,1,2,3,1,1,3,3,0,3,2,3,4,4,2,3,3,3,2,1,4,635.9,,q,,TRUE,0,43,up,down,0,q,1,0,1.65953E+12,,,FALSE,60,43,0.25,1,FALSE
,html-keyboard-response,171,369208,0.0-6.0-1.44-0.44,31,20,f,1.65953E+12,q,q,Only if I get the answer right,You win money,A fixed time limit,5,female,no,really hard on the eyes ,3,1,3,1,1,0,0,3,0,0,3,3,0,1,1,0,0,0,1,1,0,1,1,1,1,1,2,2,2,2,2,2,2,2,2,0,0,1,1,1,0,2,1,1,2,3,1,1,3,3,0,3,2,3,4,4,2,3,3,3,2,1,4,717.1,"<div style=""color:green; font-size:75px;""><b>$1.00</b></div><br><br><br><br><table><tr><td><img src=static/images/oddball_up.png></td><td><img src=static/images/oddball_up.png></td><td><img src=static/images/oddball_down.png></td></tr></table>",69,1,,,,,,,,,,,,,,,,,,
,html-keyboard-response,172,369212,0.0-6.0-1.44-1.44,31,20,f,1.65953E+12,q,q,Only if I get the answer right,You win money,A fixed time limit,5,female,no,really hard on the eyes ,3,1,3,1,1,0,0,3,0,0,3,3,0,1,1,0,0,0,1,1,0,1,1,1,1,1,2,2,2,2,2,2,2,2,2,0,0,1,1,1,0,2,1,1,2,3,1,1,3,3,0,3,2,3,4,4,2,3,3,3,2,1,4,717.1,,e,,TRUE,0,44,up,down,2,e,1,0,1.65953E+12,,,FALSE,60,44,0.266666667,1,FALSE
,html-keyboard-response,173,369964,0.0-6.0-1.45-0.45,31,20,f,1.65953E+12,q,q,Only if I get the answer right,You win money,A fixed time limit,5,female,no,really hard on the eyes ,3,1,3,1,1,0,0,3,0,0,3,3,0,1,1,0,0,0,1,1,0,1,1,1,1,1,2,2,2,2,2,2,2,2,2,0,0,1,1,1,0,2,1,1,2,3,1,1,3,3,0,3,2,3,4,4,2,3,3,3,2,1,4,null,"<div style=""color:green; font-size:75px;""><b>$1.00</b></div><br><br><br><br><table><tr><td><img src=static/images/oddball_down.png></td><td><img src=static/images/oddball_up.png></td><td><img src=static/images/oddball_down.png></td></tr></table>",null,,,,,,,,,,,,,,,,,,,
,html-keyboard-response,174,369967,0.0-6.0-1.45-1.45,31,20,f,1.65953E+12,q,q,Only if I get the answer right,You win money,A fixed time limit,5,female,no,really hard on the eyes ,3,1,3,1,1,0,0,3,0,0,3,3,0,1,1,0,0,0,1,1,0,1,1,1,1,1,2,2,2,2,2,2,2,2,2,0,0,1,1,1,0,2,1,1,2,3,1,1,3,3,0,3,2,3,4,4,2,3,3,3,2,1,4,null,,null,,TRUE,0,45,down,up,1,w,0,0,1.65953E+12,,,FALSE,60,45,0.283333333,1,TRUE
,html-keyboard-response,175,370424,0.0-6.0-1.46-0.46,31,20,f,1.65953E+12,q,q,Only if I get the answer right,You win money,A fixed time limit,5,female,no,really hard on the eyes ,3,1,3,1,1,0,0,3,0,0,3,3,0,1,1,0,0,0,1,1,0,1,1,1,1,1,2,2,2,2,2,2,2,2,2,0,0,1,1,1,0,2,1,1,2,3,1,1,3,3,0,3,2,3,4,4,2,3,3,3,2,1,4,456.9,"<div style=""color:green; font-size:75px;""><b>$1.00</b></div><br><br><br><br><table><tr><td><img src=static/images/oddball_up.png></td><td><img src=static/images/oddball_up.png></td><td><img src=static/images/oddball_down.png></td></tr></table>",81,1,,,,,,,,,,,,,,,,,,
,html-keyboard-response,176,370427,0.0-6.0-1.46-1.46,31,20,f,1.65953E+12,q,q,Only if I get the answer right,You win money,A fixed time limit,5,female,no,really hard on the eyes ,3,1,3,1,1,0,0,3,0,0,3,3,0,1,1,0,0,0,1,1,0,1,1,1,1,1,2,2,2,2,2,2,2,2,2,0,0,1,1,1,0,2,1,1,2,3,1,1,3,3,0,3,2,3,4,4,2,3,3,3,2,1,4,456.9,,q,,TRUE,0,46,up,down,2,e,0,0,1.65953E+12,,,FALSE,60,46,0.283333333,1,FALSE
,html-keyboard-response,177,371137,0.0-6.0-1.47-0.47,31,20,f,1.65953E+12,q,q,Only if I get the answer right,You win money,A fixed time limit,5,female,no,really hard on the eyes ,3,1,3,1,1,0,0,3,0,0,3,3,0,1,1,0,0,0,1,1,0,1,1,1,1,1,2,2,2,2,2,2,2,2,2,0,0,1,1,1,0,2,1,1,2,3,1,1,3,3,0,3,2,3,4,4,2,3,3,3,2,1,4,709.5,"<div style=""color:green; font-size:75px;""><b>$1.00</b></div><br><br><br><br><table><tr><td><img src=static/images/oddball_down.png></td><td><img src=static/images/oddball_down.png></td><td><img src=static/images/oddball_up.png></td></tr></table>",69,1,,,,,,,,,,,,,,,,,,
,html-keyboard-response,178,371139,0.0-6.0-1.47-1.47,31,20,f,1.65953E+12,q,q,Only if I get the answer right,You win money,A fixed time limit,5,female,no,really hard on the eyes ,3,1,3,1,1,0,0,3,0,0,3,3,0,1,1,0,0,0,1,1,0,1,1,1,1,1,2,2,2,2,2,2,2,2,2,0,0,1,1,1,0,2,1,1,2,3,1,1,3,3,0,3,2,3,4,4,2,3,3,3,2,1,4,709.5,,e,,TRUE,0,47,down,up,2,e,1,0,1.65953E+12,,,FALSE,60,47,0.283333333,1,FALSE
,html-keyboard-response,179,371902,0.0-6.0-1.48-0.48,31,20,f,1.65953E+12,q,q,Only if I get the answer right,You win money,A fixed time limit,5,female,no,really hard on the eyes ,3,1,3,1,1,0,0,3,0,0,3,3,0,1,1,0,0,0,1,1,0,1,1,1,1,1,2,2,2,2,2,2,2,2,2,0,0,1,1,1,0,2,1,1,2,3,1,1,3,3,0,3,2,3,4,4,2,3,3,3,2,1,4,null,"<div style=""color:green; font-size:75px;""><b>$1.00</b></div><br><br><br><br><table><tr><td><img src=static/images/oddball_down.png></td><td><img src=static/images/oddball_up.png></td><td><img src=static/images/oddball_up.png></td></tr></table>",null,,,,,,,,,,,,,,,,,,,
,html-keyboard-response,180,371904,0.0-6.0-1.48-1.48,31,20,f,1.65953E+12,q,q,Only if I get the answer right,You win money,A fixed time limit,5,female,no,really hard on the eyes ,3,1,3,1,1,0,0,3,0,0,3,3,0,1,1,0,0,0,1,1,0,1,1,1,1,1,2,2,2,2,2,2,2,2,2,0,0,1,1,1,0,2,1,1,2,3,1,1,3,3,0,3,2,3,4,4,2,3,3,3,2,1,4,null,,null,,TRUE,0,48,up,down,0,q,0,0,1.65953E+12,,,FALSE,60,48,0.3,1,TRUE
,html-keyboard-response,181,372632,0.0-6.0-1.49-0.49,31,20,f,1.65953E+12,q,q,Only if I get the answer right,You win money,A fixed time limit,5,female,no,really hard on the eyes ,3,1,3,1,1,0,0,3,0,0,3,3,0,1,1,0,0,0,1,1,0,1,1,1,1,1,2,2,2,2,2,2,2,2,2,0,0,1,1,1,0,2,1,1,2,3,1,1,3,3,0,3,2,3,4,4,2,3,3,3,2,1,4,727.3,"<div style=""color:green; font-size:75px;""><b>$1.00</b></div><br><br><br><br><table><tr><td><img src=static/images/oddball_up.png></td><td><img src=static/images/oddball_down.png></td><td><img src=static/images/oddball_up.png></td></tr></table>",87,1,,,,,,,,,,,,,,,,,,
,html-keyboard-response,182,372635,0.0-6.0-1.49-1.49,31,20,f,1.65953E+12,q,q,Only if I get the answer right,You win money,A fixed time limit,5,female,no,really hard on the eyes ,3,1,3,1,1,0,0,3,0,0,3,3,0,1,1,0,0,0,1,1,0,1,1,1,1,1,2,2,2,2,2,2,2,2,2,0,0,1,1,1,0,2,1,1,2,3,1,1,3,3,0,3,2,3,4,4,2,3,3,3,2,1,4,727.3,,w,,TRUE,0,49,up,down,1,w,1,0,1.65953E+12,,,FALSE,60,49,0.3,1,FALSE
,html-keyboard-response,183,373389,0.0-6.0-1.50-0.50,31,20,f,1.65953E+12,q,q,Only if I get the answer right,You win money,A fixed time limit,5,female,no,really hard on the eyes ,3,1,3,1,1,0,0,3,0,0,3,3,0,1,1,0,0,0,1,1,0,1,1,1,1,1,2,2,2,2,2,2,2,2,2,0,0,1,1,1,0,2,1,1,2,3,1,1,3,3,0,3,2,3,4,4,2,3,3,3,2,1,4,null,"<div style=""color:green; font-size:75px;""><b>$1.00</b></div><br><br><br><br><table><tr><td><img src=static/images/oddball_up.png></td><td><img src=static/images/oddball_down.png></td><td><img src=static/images/oddball_down.png></td></tr></table>",null,,,,,,,,,,,,,,,,,,,
,html-keyboard-response,184,373390,0.0-6.0-1.50-1.50,31,20,f,1.65953E+12,q,q,Only if I get the answer right,You win money,A fixed time limit,5,female,no,really hard on the eyes ,3,1,3,1,1,0,0,3,0,0,3,3,0,1,1,0,0,0,1,1,0,1,1,1,1,1,2,2,2,2,2,2,2,2,2,0,0,1,1,1,0,2,1,1,2,3,1,1,3,3,0,3,2,3,4,4,2,3,3,3,2,1,4,null,,null,,TRUE,0,50,down,up,0,q,0,0,1.65953E+12,,,FALSE,60,50,0.316666667,1,TRUE
,html-keyboard-response,185,373440,0.0-6.0-1.51-0.51,31,20,f,1.65953E+12,q,q,Only if I get the answer right,You win money,A fixed time limit,5,female,no,really hard on the eyes ,3,1,3,1,1,0,0,3,0,0,3,3,0,1,1,0,0,0,1,1,0,1,1,1,1,1,2,2,2,2,2,2,2,2,2,0,0,1,1,1,0,2,1,1,2,3,1,1,3,3,0,3,2,3,4,4,2,3,3,3,2,1,4,49.10000001,"<div style=""color:green; font-size:75px;""><b>$1.00</b></div><br><br><br><br><table><tr><td><img src=static/images/oddball_up.png></td><td><img src=static/images/oddball_up.png></td><td><img src=static/images/oddball_down.png></td></tr></table>",81,1,,,,,,,,,,,,,,,,,,
,html-keyboard-response,186,373442,0.0-6.0-1.51-1.51,31,20,f,1.65953E+12,q,q,Only if I get the answer right,You win money,A fixed time limit,5,female,no,really hard on the eyes ,3,1,3,1,1,0,0,3,0,0,3,3,0,1,1,0,0,0,1,1,0,1,1,1,1,1,2,2,2,2,2,2,2,2,2,0,0,1,1,1,0,2,1,1,2,3,1,1,3,3,0,3,2,3,4,4,2,3,3,3,2,1,4,49.10000001,,q,,TRUE,0,51,up,down,2,e,0,0,1.65953E+12,,,FALSE,60,51,0.316666667,1,FALSE
,html-keyboard-response,187,374206,0.0-6.0-1.52-0.52,31,20,f,1.65953E+12,q,q,Only if I get the answer right,You win money,A fixed time limit,5,female,no,really hard on the eyes ,3,1,3,1,1,0,0,3,0,0,3,3,0,1,1,0,0,0,1,1,0,1,1,1,1,1,2,2,2,2,2,2,2,2,2,0,0,1,1,1,0,2,1,1,2,3,1,1,3,3,0,3,2,3,4,4,2,3,3,3,2,1,4,null,"<div style=""color:green; font-size:75px;""><b>$1.00</b></div><br><br><br><br><table><tr><td><img src=static/images/oddball_down.png></td><td><img src=static/images/oddball_up.png></td><td><img src=static/images/oddball_down.png></td></tr></table>",null,,,,,,,,,,,,,,,,,,,
,html-keyboard-response,188,374210,0.0-6.0-1.52-1.52,31,20,f,1.65953E+12,q,q,Only if I get the answer right,You win money,A fixed time limit,5,female,no,really hard on the eyes ,3,1,3,1,1,0,0,3,0,0,3,3,0,1,1,0,0,0,1,1,0,1,1,1,1,1,2,2,2,2,2,2,2,2,2,0,0,1,1,1,0,2,1,1,2,3,1,1,3,3,0,3,2,3,4,4,2,3,3,3,2,1,4,null,,null,,TRUE,0,52,down,up,1,w,0,0,1.65953E+12,,,FALSE,60,52,0.316666667,1,TRUE
,html-keyboard-response,189,374408,0.0-6.0-1.53-0.53,31,20,f,1.65953E+12,q,q,Only if I get the answer right,You win money,A fixed time limit,5,female,no,really hard on the eyes ,3,1,3,1,1,0,0,3,0,0,3,3,0,1,1,0,0,0,1,1,0,1,1,1,1,1,2,2,2,2,2,2,2,2,2,0,0,1,1,1,0,2,1,1,2,3,1,1,3,3,0,3,2,3,4,4,2,3,3,3,2,1,4,198.1,"<div style=""color:green; font-size:75px;""><b>$1.00</b></div><br><br><br><br><table><tr><td><img src=static/images/oddball_down.png></td><td><img src=static/images/oddball_up.png></td><td><img src=static/images/oddball_up.png></td></tr></table>",87,1,,,,,,,,,,,,,,,,,,
,html-keyboard-response,190,374411,0.0-6.0-1.53-1.53,31,20,f,1.65953E+12,q,q,Only if I get the answer right,You win money,A fixed time limit,5,female,no,really hard on the eyes ,3,1,3,1,1,0,0,3,0,0,3,3,0,1,1,0,0,0,1,1,0,1,1,1,1,1,2,2,2,2,2,2,2,2,2,0,0,1,1,1,0,2,1,1,2,3,1,1,3,3,0,3,2,3,4,4,2,3,3,3,2,1,4,198.1,,w,,TRUE,0,53,up,down,0,q,0,0,1.65953E+12,,,FALSE,60,53,0.316666667,1,FALSE
,html-keyboard-response,191,375174,0.0-6.0-1.54-0.54,31,20,f,1.65953E+12,q,q,Only if I get the answer right,You win money,A fixed time limit,5,female,no,really hard on the eyes ,3,1,3,1,1,0,0,3,0,0,3,3,0,1,1,0,0,0,1,1,0,1,1,1,1,1,2,2,2,2,2,2,2,2,2,0,0,1,1,1,0,2,1,1,2,3,1,1,3,3,0,3,2,3,4,4,2,3,3,3,2,1,4,null,"<div style=""color:green; font-size:75px;""><b>$1.00</b></div><br><br><br><br><table><tr><td><img src=static/images/oddball_down.png></td><td><img src=static/images/oddball_down.png></td><td><img src=static/images/oddball_up.png></td></tr></table>",null,,,,,,,,,,,,,,,,,,,
,html-keyboard-response,192,375176,0.0-6.0-1.54-1.54,31,20,f,1.65953E+12,q,q,Only if I get the answer right,You win money,A fixed time limit,5,female,no,really hard on the eyes ,3,1,3,1,1,0,0,3,0,0,3,3,0,1,1,0,0,0,1,1,0,1,1,1,1,1,2,2,2,2,2,2,2,2,2,0,0,1,1,1,0,2,1,1,2,3,1,1,3,3,0,3,2,3,4,4,2,3,3,3,2,1,4,null,,null,,TRUE,0,54,down,up,2,e,0,0,1.65953E+12,,,FALSE,60,54,0.316666667,1,TRUE
,html-keyboard-response,193,375768,0.0-6.0-1.55-0.55,31,20,f,1.65953E+12,q,q,Only if I get the answer right,You win money,A fixed time limit,5,female,no,really hard on the eyes ,3,1,3,1,1,0,0,3,0,0,3,3,0,1,1,0,0,0,1,1,0,1,1,1,1,1,2,2,2,2,2,2,2,2,2,0,0,1,1,1,0,2,1,1,2,3,1,1,3,3,0,3,2,3,4,4,2,3,3,3,2,1,4,591.7,"<div style=""color:green; font-size:75px;""><b>$1.00</b></div><br><br><br><br><table><tr><td><img src=static/images/oddball_down.png></td><td><img src=static/images/oddball_up.png></td><td><img src=static/images/oddball_up.png></td></tr></table>",87,1,,,,,,,,,,,,,,,,,,
,html-keyboard-response,194,375771,0.0-6.0-1.55-1.55,31,20,f,1.65953E+12,q,q,Only if I get the answer right,You win money,A fixed time limit,5,female,no,really hard on the eyes ,3,1,3,1,1,0,0,3,0,0,3,3,0,1,1,0,0,0,1,1,0,1,1,1,1,1,2,2,2,2,2,2,2,2,2,0,0,1,1,1,0,2,1,1,2,3,1,1,3,3,0,3,2,3,4,4,2,3,3,3,2,1,4,591.7,,w,,TRUE,0,55,up,down,0,q,0,0,1.65953E+12,,,FALSE,60,55,0.316666667,1,FALSE
,html-keyboard-response,195,376344,0.0-6.0-1.56-0.56,31,20,f,1.65953E+12,q,q,Only if I get the answer right,You win money,A fixed time limit,5,female,no,really hard on the eyes ,3,1,3,1,1,0,0,3,0,0,3,3,0,1,1,0,0,0,1,1,0,1,1,1,1,1,2,2,2,2,2,2,2,2,2,0,0,1,1,1,0,2,1,1,2,3,1,1,3,3,0,3,2,3,4,4,2,3,3,3,2,1,4,573.2,"<div style=""color:green; font-size:75px;""><b>$1.00</b></div><br><br><br><br><table><tr><td><img src=static/images/oddball_up.png></td><td><img src=static/images/oddball_down.png></td><td><img src=static/images/oddball_up.png></td></tr></table>",81,1,,,,,,,,,,,,,,,,,,
,html-keyboard-response,196,376347,0.0-6.0-1.56-1.56,31,20,f,1.65953E+12,q,q,Only if I get the answer right,You win money,A fixed time limit,5,female,no,really hard on the eyes ,3,1,3,1,1,0,0,3,0,0,3,3,0,1,1,0,0,0,1,1,0,1,1,1,1,1,2,2,2,2,2,2,2,2,2,0,0,1,1,1,0,2,1,1,2,3,1,1,3,3,0,3,2,3,4,4,2,3,3,3,2,1,4,573.2,,q,,TRUE,0,56,up,down,1,w,0,0,1.65953E+12,,,FALSE,60,56,0.316666667,1,FALSE
,html-keyboard-response,197,376921,0.0-6.0-1.57-0.57,31,20,f,1.65953E+12,q,q,Only if I get the answer right,You win money,A fixed time limit,5,female,no,really hard on the eyes ,3,1,3,1,1,0,0,3,0,0,3,3,0,1,1,0,0,0,1,1,0,1,1,1,1,1,2,2,2,2,2,2,2,2,2,0,0,1,1,1,0,2,1,1,2,3,1,1,3,3,0,3,2,3,4,4,2,3,3,3,2,1,4,573.3,"<div style=""color:green; font-size:75px;""><b>$1.00</b></div><br><br><br><br><table><tr><td><img src=static/images/oddball_up.png></td><td><img src=static/images/oddball_down.png></td><td><img src=static/images/oddball_up.png></td></tr></table>",87,1,,,,,,,,,,,,,,,,,,
,html-keyboard-response,198,376923,0.0-6.0-1.57-1.57,31,20,f,1.65953E+12,q,q,Only if I get the answer right,You win money,A fixed time limit,5,female,no,really hard on the eyes ,3,1,3,1,1,0,0,3,0,0,3,3,0,1,1,0,0,0,1,1,0,1,1,1,1,1,2,2,2,2,2,2,2,2,2,0,0,1,1,1,0,2,1,1,2,3,1,1,3,3,0,3,2,3,4,4,2,3,3,3,2,1,4,573.3,,w,,TRUE,0,57,up,down,1,w,1,0,1.65953E+12,,,FALSE,60,57,0.316666667,1,FALSE
,html-keyboard-response,199,377679,0.0-6.0-1.58-0.58,31,20,f,1.65953E+12,q,q,Only if I get the answer right,You win money,A fixed time limit,5,female,no,really hard on the eyes ,3,1,3,1,1,0,0,3,0,0,3,3,0,1,1,0,0,0,1,1,0,1,1,1,1,1,2,2,2,2,2,2,2,2,2,0,0,1,1,1,0,2,1,1,2,3,1,1,3,3,0,3,2,3,4,4,2,3,3,3,2,1,4,null,"<div style=""color:green; font-size:75px;""><b>$1.00</b></div><br><br><br><br><table><tr><td><img src=static/images/oddball_down.png></td><td><img src=static/images/oddball_up.png></td><td><img src=static/images/oddball_down.png></td></tr></table>",null,,,,,,,,,,,,,,,,,,,
,html-keyboard-response,200,377681,0.0-6.0-1.58-1.58,31,20,f,1.65953E+12,q,q,Only if I get the answer right,You win money,A fixed time limit,5,female,no,really hard on the eyes ,3,1,3,1,1,0,0,3,0,0,3,3,0,1,1,0,0,0,1,1,0,1,1,1,1,1,2,2,2,2,2,2,2,2,2,0,0,1,1,1,0,2,1,1,2,3,1,1,3,3,0,3,2,3,4,4,2,3,3,3,2,1,4,null,,null,,TRUE,0,58,down,up,1,w,0,0,1.65953E+12,,,FALSE,60,58,0.333333333,1,TRUE
,html-keyboard-response,201,377744,0.0-6.0-1.59-0.59,31,20,f,1.65953E+12,q,q,Only if I get the answer right,You win money,A fixed time limit,5,female,no,really hard on the eyes ,3,1,3,1,1,0,0,3,0,0,3,3,0,1,1,0,0,0,1,1,0,1,1,1,1,1,2,2,2,2,2,2,2,2,2,0,0,1,1,1,0,2,1,1,2,3,1,1,3,3,0,3,2,3,4,4,2,3,3,3,2,1,4,62.5,"<div style=""color:green; font-size:75px;""><b>$1.00</b></div><br><br><br><br><table><tr><td><img src=static/images/oddball_up.png></td><td><img src=static/images/oddball_down.png></td><td><img src=static/images/oddball_down.png></td></tr></table>",87,1,,,,,,,,,,,,,,,,,,
,html-keyboard-response,202,377746,0.0-6.0-1.59-1.59,31,20,f,1.65953E+12,q,q,Only if I get the answer right,You win money,A fixed time limit,5,female,no,really hard on the eyes ,3,1,3,1,1,0,0,3,0,0,3,3,0,1,1,0,0,0,1,1,0,1,1,1,1,1,2,2,2,2,2,2,2,2,2,0,0,1,1,1,0,2,1,1,2,3,1,1,3,3,0,3,2,3,4,4,2,3,3,3,2,1,4,62.5,,w,,TRUE,0,59,down,up,0,q,0,0,1.65953E+12,,,FALSE,60,59,0.333333333,1,FALSE
,html-keyboard-response,203,378408,0.0-6.0-1.60-0.60,31,20,f,1.65953E+12,q,q,Only if I get the answer right,You win money,A fixed time limit,5,female,no,really hard on the eyes ,3,1,3,1,1,0,0,3,0,0,3,3,0,1,1,0,0,0,1,1,0,1,1,1,1,1,2,2,2,2,2,2,2,2,2,0,0,1,1,1,0,2,1,1,2,3,1,1,3,3,0,3,2,3,4,4,2,3,3,3,2,1,4,661.5,"<div style=""color:green; font-size:75px;""><b>$1.00</b></div><br><br><br><br><table><tr><td><img src=static/images/oddball_up.png></td><td><img src=static/images/oddball_down.png></td><td><img src=static/images/oddball_down.png></td></tr></table>",81,1,,,,,,,,,,,,,,,,,,
,html-keyboard-response,204,378412,0.0-6.0-1.60-1.60,31,20,f,1.65953E+12,q,q,Only if I get the answer right,You win money,A fixed time limit,5,female,no,really hard on the eyes ,3,1,3,1,1,0,0,3,0,0,3,3,0,1,1,0,0,0,1,1,0,1,1,1,1,1,2,2,2,2,2,2,2,2,2,0,0,1,1,1,0,2,1,1,2,3,1,1,3,3,0,3,2,3,4,4,2,3,3,3,2,1,4,661.5,,q,,TRUE,0,60,down,up,0,q,1,0,1.65953E+12,,,FALSE,60,60,0.333333333,1,FALSE
,html-keyboard-response,205,379080,0.0-6.0-1.61-0.61,31,20,f,1.65953E+12,q,q,Only if I get the answer right,You win money,A fixed time limit,5,female,no,really hard on the eyes ,3,1,3,1,1,0,0,3,0,0,3,3,0,1,1,0,0,0,1,1,0,1,1,1,1,1,2,2,2,2,2,2,2,2,2,0,0,1,1,1,0,2,1,1,2,3,1,1,3,3,0,3,2,3,4,4,2,3,3,3,2,1,4,667.5,"<div style=""color:green; font-size:75px;""><b>$1.00</b></div><br><br><br><br><table><tr><td><img src=static/images/oddball_down.png></td><td><img src=static/images/oddball_up.png></td><td><img src=static/images/oddball_up.png></td></tr></table>",81,1,,,,,,,,,,,,,,,,,,
,html-keyboard-response,206,379082,0.0-6.0-1.61-1.61,31,20,f,1.65953E+12,q,q,Only if I get the answer right,You win money,A fixed time limit,5,female,no,really hard on the eyes ,3,1,3,1,1,0,0,3,0,0,3,3,0,1,1,0,0,0,1,1,0,1,1,1,1,1,2,2,2,2,2,2,2,2,2,0,0,1,1,1,0,2,1,1,2,3,1,1,3,3,0,3,2,3,4,4,2,3,3,3,2,1,4,667.5,,q,,TRUE,0,61,up,down,0,q,1,0,1.65953E+12,,,FALSE,60,61,0.35,1,FALSE
,html-keyboard-response,207,379834,0.0-6.0-1.62-0.62,31,20,f,1.65953E+12,q,q,Only if I get the answer right,You win money,A fixed time limit,5,female,no,really hard on the eyes ,3,1,3,1,1,0,0,3,0,0,3,3,0,1,1,0,0,0,1,1,0,1,1,1,1,1,2,2,2,2,2,2,2,2,2,0,0,1,1,1,0,2,1,1,2,3,1,1,3,3,0,3,2,3,4,4,2,3,3,3,2,1,4,null,"<div style=""color:green; font-size:75px;""><b>$1.00</b></div><br><br><br><br><table><tr><td><img src=static/images/oddball_down.png></td><td><img src=static/images/oddball_up.png></td><td><img src=static/images/oddball_down.png></td></tr></table>",null,,,,,,,,,,,,,,,,,,,
,html-keyboard-response,208,379835,0.0-6.0-1.62-1.62,31,20,f,1.65953E+12,q,q,Only if I get the answer right,You win money,A fixed time limit,5,female,no,really hard on the eyes ,3,1,3,1,1,0,0,3,0,0,3,3,0,1,1,0,0,0,1,1,0,1,1,1,1,1,2,2,2,2,2,2,2,2,2,0,0,1,1,1,0,2,1,1,2,3,1,1,3,3,0,3,2,3,4,4,2,3,3,3,2,1,4,null,,null,,TRUE,0,62,down,up,1,w,0,0,1.65953E+12,,,FALSE,60,62,0.366666667,1,TRUE
,html-keyboard-response,209,380072,0.0-6.0-1.63-0.63,31,20,f,1.65953E+12,q,q,Only if I get the answer right,You win money,A fixed time limit,5,female,no,really hard on the eyes ,3,1,3,1,1,0,0,3,0,0,3,3,0,1,1,0,0,0,1,1,0,1,1,1,1,1,2,2,2,2,2,2,2,2,2,0,0,1,1,1,0,2,1,1,2,3,1,1,3,3,0,3,2,3,4,4,2,3,3,3,2,1,4,236,"<div style=""color:green; font-size:75px;""><b>$1.00</b></div><br><br><br><br><table><tr><td><img src=static/images/oddball_up.png></td><td><img src=static/images/oddball_up.png></td><td><img src=static/images/oddball_down.png></td></tr></table>",81,1,,,,,,,,,,,,,,,,,,
,html-keyboard-response,210,380075,0.0-6.0-1.63-1.63,31,20,f,1.65953E+12,q,q,Only if I get the answer right,You win money,A fixed time limit,5,female,no,really hard on the eyes ,3,1,3,1,1,0,0,3,0,0,3,3,0,1,1,0,0,0,1,1,0,1,1,1,1,1,2,2,2,2,2,2,2,2,2,0,0,1,1,1,0,2,1,1,2,3,1,1,3,3,0,3,2,3,4,4,2,3,3,3,2,1,4,236,,q,,TRUE,0,63,up,down,2,e,0,0,1.65953E+12,,,FALSE,60,63,0.366666667,1,FALSE
,html-keyboard-response,211,380616,0.0-6.0-1.64-0.64,31,20,f,1.65953E+12,q,q,Only if I get the answer right,You win money,A fixed time limit,5,female,no,really hard on the eyes ,3,1,3,1,1,0,0,3,0,0,3,3,0,1,1,0,0,0,1,1,0,1,1,1,1,1,2,2,2,2,2,2,2,2,2,0,0,1,1,1,0,2,1,1,2,3,1,1,3,3,0,3,2,3,4,4,2,3,3,3,2,1,4,541.1,"<div style=""color:green; font-size:75px;""><b>$1.00</b></div><br><br><br><br><table><tr><td><img src=static/images/oddball_up.png></td><td><img src=static/images/oddball_down.png></td><td><img src=static/images/oddball_down.png></td></tr></table>",87,1,,,,,,,,,,,,,,,,,,
,html-keyboard-response,212,380619,0.0-6.0-1.64-1.64,31,20,f,1.65953E+12,q,q,Only if I get the answer right,You win money,A fixed time limit,5,female,no,really hard on the eyes ,3,1,3,1,1,0,0,3,0,0,3,3,0,1,1,0,0,0,1,1,0,1,1,1,1,1,2,2,2,2,2,2,2,2,2,0,0,1,1,1,0,2,1,1,2,3,1,1,3,3,0,3,2,3,4,4,2,3,3,3,2,1,4,541.1,,w,,TRUE,0,64,down,up,0,q,0,0,1.65953E+12,,,FALSE,60,64,0.366666667,1,FALSE
,html-keyboard-response,213,381280,0.0-6.0-1.65-0.65,31,20,f,1.65953E+12,q,q,Only if I get the answer right,You win money,A fixed time limit,5,female,no,really hard on the eyes ,3,1,3,1,1,0,0,3,0,0,3,3,0,1,1,0,0,0,1,1,0,1,1,1,1,1,2,2,2,2,2,2,2,2,2,0,0,1,1,1,0,2,1,1,2,3,1,1,3,3,0,3,2,3,4,4,2,3,3,3,2,1,4,661.2,"<div style=""color:green; font-size:75px;""><b>$1.00</b></div><br><br><br><br><table><tr><td><img src=static/images/oddball_down.png></td><td><img src=static/images/oddball_down.png></td><td><img src=static/images/oddball_up.png></td></tr></table>",69,1,,,,,,,,,,,,,,,,,,
,html-keyboard-response,214,381284,0.0-6.0-1.65-1.65,31,20,f,1.65953E+12,q,q,Only if I get the answer right,You win money,A fixed time limit,5,female,no,really hard on the eyes ,3,1,3,1,1,0,0,3,0,0,3,3,0,1,1,0,0,0,1,1,0,1,1,1,1,1,2,2,2,2,2,2,2,2,2,0,0,1,1,1,0,2,1,1,2,3,1,1,3,3,0,3,2,3,4,4,2,3,3,3,2,1,4,661.2,,e,,TRUE,0,65,down,up,2,e,1,0,1.65953E+12,,,FALSE,60,65,0.366666667,1,FALSE
,html-keyboard-response,215,381976,0.0-6.0-1.66-0.66,31,20,f,1.65953E+12,q,q,Only if I get the answer right,You win money,A fixed time limit,5,female,no,really hard on the eyes ,3,1,3,1,1,0,0,3,0,0,3,3,0,1,1,0,0,0,1,1,0,1,1,1,1,1,2,2,2,2,2,2,2,2,2,0,0,1,1,1,0,2,1,1,2,3,1,1,3,3,0,3,2,3,4,4,2,3,3,3,2,1,4,692,"<div style=""color:green; font-size:75px;""><b>$1.00</b></div><br><br><br><br><table><tr><td><img src=static/images/oddball_down.png></td><td><img src=static/images/oddball_up.png></td><td><img src=static/images/oddball_up.png></td></tr></table>",81,1,,,,,,,,,,,,,,,,,,
,html-keyboard-response,216,381979,0.0-6.0-1.66-1.66,31,20,f,1.65953E+12,q,q,Only if I get the answer right,You win money,A fixed time limit,5,female,no,really hard on the eyes ,3,1,3,1,1,0,0,3,0,0,3,3,0,1,1,0,0,0,1,1,0,1,1,1,1,1,2,2,2,2,2,2,2,2,2,0,0,1,1,1,0,2,1,1,2,3,1,1,3,3,0,3,2,3,4,4,2,3,3,3,2,1,4,692,,q,,TRUE,0,66,up,down,0,q,1,0,1.65953E+12,,,FALSE,60,66,0.383333333,1,FALSE
,html-keyboard-response,217,382664,0.0-6.0-1.67-0.67,31,20,f,1.65953E+12,q,q,Only if I get the answer right,You win money,A fixed time limit,5,female,no,really hard on the eyes ,3,1,3,1,1,0,0,3,0,0,3,3,0,1,1,0,0,0,1,1,0,1,1,1,1,1,2,2,2,2,2,2,2,2,2,0,0,1,1,1,0,2,1,1,2,3,1,1,3,3,0,3,2,3,4,4,2,3,3,3,2,1,4,685.3,"<div style=""color:green; font-size:75px;""><b>$1.00</b></div><br><br><br><br><table><tr><td><img src=static/images/oddball_down.png></td><td><img src=static/images/oddball_up.png></td><td><img src=static/images/oddball_down.png></td></tr></table>",87,1,,,,,,,,,,,,,,,,,,
