"success","trial_type","trial_index","time_elapsed","internal_node_id","subject","age","sex","date","instQ1","instQ2","instQ3","instQ4","instQ5","totalInstQ","gender","strategy","comments","DASS1_s","DASS2_a","DASS3_d","DASS4_a","DASS5_d","DASS6_s","DASS7_a","DASS8_s","DASS9_a","DASS10_d","DASS11_s","DASS12_s","DASS13_d","DASS14_s","DASS15_a","DASS16_d","DASS17_d","DASS18_s","DASS19_a","DASS20_a","DASS21_d","BB1","BB2","BB3","BB4","BB5","BB6","BB7","BB8","BB9","BB10","BB11","BB12","BB13","BB14","BB15","BB16","BB17","BB18","BB19","BB20","BB21","BB22","BB23","BB24","NFC1","NFC2","NFC3","NFC4","NFC5","NFC6","NFC7","NFC8","NFC9","NFC10","NFC11","NFC12","NFC13","NFC14","NFC15","NFC16","NFC17","NFC18","rt","stimulus","key_press","npress","isDataTrial","block","trialinblock","common","odd","oddidx","correct_ans","accuracy","totalTokens","timestamp","responses","question_order","showprog","blocklen","trial","progress","reward","timedout"
"true","fullscreen","0","3366","0.0-0.0","018","20","F","1659034576516","q","q","Only if I get the answer right","You win money","A fixed time limit","5","female","No","no","1","0","0","0","0","1","1","2","1","0","0","1","0","0","0","0","0","1","1","0","0","0","3","1","1","1","0","0","1","2","1","1","1","1","1","1","1","0","1","0","1","2","1","0","1","3","3","1","1","1","2","2","2","1","2","3","1","3","3","3","3","1","3","","","","","","","","","","","","","","","","","","","","","",""
"","image-keyboard-response","1","47654","0.0-1.0-0.0","018","20","F","1659034576516","q","q","Only if I get the answer right","You win money","A fixed time limit","5","female","No","no","1","0","0","0","0","1","1","2","1","0","0","1","0","0","0","0","0","1","1","0","0","0","3","1","1","1","0","0","1","2","1","1","1","1","1","1","1","0","1","0","1","2","1","0","1","3","3","1","1","1","2","2","2","1","2","3","1","3","3","3","3","1","3","44287","static/images/instructions/Slide1.png","39","","","","","","","","","","","","","","","","","","",""
"","image-keyboard-response","2","80598","0.0-1.1-0.1","018","20","F","1659034576516","q","q","Only if I get the answer right","You win money","A fixed time limit","5","female","No","no","1","0","0","0","0","1","1","2","1","0","0","1","0","0","0","0","0","1","1","0","0","0","3","1","1","1","0","0","1","2","1","1","1","1","1","1","1","0","1","0","1","2","1","0","1","3","3","1","1","1","2","2","2","1","2","3","1","3","3","3","3","1","3","32944","static/images/instructions/Slide2.png","39","","","","","","","","","","","","","","","","","","",""
"","image-keyboard-response","3","89318","0.0-1.2-0.2","018","20","F","1659034576516","q","q","Only if I get the answer right","You win money","A fixed time limit","5","female","No","no","1","0","0","0","0","1","1","2","1","0","0","1","0","0","0","0","0","1","1","0","0","0","3","1","1","1","0","0","1","2","1","1","1","1","1","1","1","0","1","0","1","2","1","0","1","3","3","1","1","1","2","2","2","1","2","3","1","3","3","3","3","1","3","8718.899999976158","static/images/instructions/Slide3.png","39","","","","","","","","","","","","","","","","","","",""
"","image-keyboard-response","4","95918","0.0-1.3-0.3","018","20","F","1659034576516","q","q","Only if I get the answer right","You win money","A fixed time limit","5","female","No","no","1","0","0","0","0","1","1","2","1","0","0","1","0","0","0","0","0","1","1","0","0","0","3","1","1","1","0","0","1","2","1","1","1","1","1","1","1","0","1","0","1","2","1","0","1","3","3","1","1","1","2","2","2","1","2","3","1","3","3","3","3","1","3","6599","static/images/instructions/Slide4.png","39","","","","","","","","","","","","","","","","","","",""
"","image-keyboard-response","5","108278","0.0-1.4-0.4","018","20","F","1659034576516","q","q","Only if I get the answer right","You win money","A fixed time limit","5","female","No","no","1","0","0","0","0","1","1","2","1","0","0","1","0","0","0","0","0","1","1","0","0","0","3","1","1","1","0","0","1","2","1","1","1","1","1","1","1","0","1","0","1","2","1","0","1","3","3","1","1","1","2","2","2","1","2","3","1","3","3","3","3","1","3","12359.300000011921","static/images/instructions/Slide5.png","39","","","","","","","","","","","","","","","","","","",""
"","image-keyboard-response","6","119974","0.0-1.5-0.5","018","20","F","1659034576516","q","q","Only if I get the answer right","You win money","A fixed time limit","5","female","No","no","1","0","0","0","0","1","1","2","1","0","0","1","0","0","0","0","0","1","1","0","0","0","3","1","1","1","0","0","1","2","1","1","1","1","1","1","1","0","1","0","1","2","1","0","1","3","3","1","1","1","2","2","2","1","2","3","1","3","3","3","3","1","3","11695.100000023842","static/images/instructions/Slide6.png","39","","","","","","","","","","","","","","","","","","",""
"","image-keyboard-response","7","141427","0.0-1.6-0.6","018","20","F","1659034576516","q","q","Only if I get the answer right","You win money","A fixed time limit","5","female","No","no","1","0","0","0","0","1","1","2","1","0","0","1","0","0","0","0","0","1","1","0","0","0","3","1","1","1","0","0","1","2","1","1","1","1","1","1","1","0","1","0","1","2","1","0","1","3","3","1","1","1","2","2","2","1","2","3","1","3","3","3","3","1","3","21455.5","static/images/instructions/Slide7.png","39","","","","","","","","","","","","","","","","","","",""
"","html-keyboard-response","8","142083","0.0-2.0-0.0","018","20","F","1659034576516","q","q","Only if I get the answer right","You win money","A fixed time limit","5","female","No","no","1","0","0","0","0","1","1","2","1","0","0","1","0","0","0","0","0","1","1","0","0","0","3","1","1","1","0","0","1","2","1","1","1","1","1","1","1","0","1","0","1","2","1","0","1","3","3","1","1","1","2","2","2","1","2","3","1","3","3","3","3","1","3","655.0999999642372","<br><br><br><br><table><tr><td><img src=static/images/oddball_down.png></td><td><img src=static/images/oddball_down.png></td><td><img src=static/images/oddball_up.png></td></tr></table>","69","1","","","","","","","","","","","","","","","","","",""
"","html-keyboard-response","9","144599","0.0-2.0-1.0","018","20","F","1659034576516","q","q","Only if I get the answer right","You win money","A fixed time limit","5","female","No","no","1","0","0","0","0","1","1","2","1","0","0","1","0","0","0","0","0","1","1","0","0","0","3","1","1","1","0","0","1","2","1","1","1","1","1","1","1","0","1","0","1","2","1","0","1","3","3","1","1","1","2","2","2","1","2","3","1","3","3","3","3","1","3","null","<div style=""font-size:75px;""><b>Correct</b></div>","null","","","","","","","","","","","","","","","","","","",""
"","html-keyboard-response","10","145603","0.0-2.0-2.0","018","20","F","1659034576516","q","q","Only if I get the answer right","You win money","A fixed time limit","5","female","No","no","1","0","0","0","0","1","1","2","1","0","0","1","0","0","0","0","0","1","1","0","0","0","3","1","1","1","0","0","1","2","1","1","1","1","1","1","1","0","1","0","1","2","1","0","1","3","3","1","1","1","2","2","2","1","2","3","1","3","3","3","3","1","3","655.0999999642372","","e","","true","practice","0","down","up","2","e","1","0","1659034722441","","","","","","","",""
"","html-keyboard-response","11","146303","0.0-2.1-0.1","018","20","F","1659034576516","q","q","Only if I get the answer right","You win money","A fixed time limit","5","female","No","no","1","0","0","0","0","1","1","2","1","0","0","1","0","0","0","0","0","1","1","0","0","0","3","1","1","1","0","0","1","2","1","1","1","1","1","1","1","0","1","0","1","2","1","0","1","3","3","1","1","1","2","2","2","1","2","3","1","3","3","3","3","1","3","699.3000000119209","<br><br><br><br><table><tr><td><img src=static/images/oddball_up.png></td><td><img src=static/images/oddball_down.png></td><td><img src=static/images/oddball_down.png></td></tr></table>","81","1","","","","","","","","","","","","","","","","","",""
"","html-keyboard-response","12","148805","0.0-2.1-1.1","018","20","F","1659034576516","q","q","Only if I get the answer right","You win money","A fixed time limit","5","female","No","no","1","0","0","0","0","1","1","2","1","0","0","1","0","0","0","0","0","1","1","0","0","0","3","1","1","1","0","0","1","2","1","1","1","1","1","1","1","0","1","0","1","2","1","0","1","3","3","1","1","1","2","2","2","1","2","3","1","3","3","3","3","1","3","null","<div style=""font-size:75px;""><b>Correct</b></div>","null","","","","","","","","","","","","","","","","","","",""
"","html-keyboard-response","13","149810","0.0-2.1-2.1","018","20","F","1659034576516","q","q","Only if I get the answer right","You win money","A fixed time limit","5","female","No","no","1","0","0","0","0","1","1","2","1","0","0","1","0","0","0","0","0","1","1","0","0","0","3","1","1","1","0","0","1","2","1","1","1","1","1","1","1","0","1","0","1","2","1","0","1","3","3","1","1","1","2","2","2","1","2","3","1","3","3","3","3","1","3","699.3000000119209","","q","","true","practice","1","down","up","0","q","1","0","1659034726648","","","","","","","",""
"","html-keyboard-response","14","150467","0.0-2.2-0.2","018","20","F","1659034576516","q","q","Only if I get the answer right","You win money","A fixed time limit","5","female","No","no","1","0","0","0","0","1","1","2","1","0","0","1","0","0","0","0","0","1","1","0","0","0","3","1","1","1","0","0","1","2","1","1","1","1","1","1","1","0","1","0","1","2","1","0","1","3","3","1","1","1","2","2","2","1","2","3","1","3","3","3","3","1","3","655.8000000119209","<br><br><br><br><table><tr><td><img src=static/images/oddball_down.png></td><td><img src=static/images/oddball_up.png></td><td><img src=static/images/oddball_down.png></td></tr></table>","87","1","","","","","","","","","","","","","","","","","",""
"","html-keyboard-response","15","152971","0.0-2.2-1.2","018","20","F","1659034576516","q","q","Only if I get the answer right","You win money","A fixed time limit","5","female","No","no","1","0","0","0","0","1","1","2","1","0","0","1","0","0","0","0","0","1","1","0","0","0","3","1","1","1","0","0","1","2","1","1","1","1","1","1","1","0","1","0","1","2","1","0","1","3","3","1","1","1","2","2","2","1","2","3","1","3","3","3","3","1","3","null","<div style=""font-size:75px;""><b>Correct</b></div>","null","","","","","","","","","","","","","","","","","","",""
"","html-keyboard-response","16","153985","0.0-2.2-2.2","018","20","F","1659034576516","q","q","Only if I get the answer right","You win money","A fixed time limit","5","female","No","no","1","0","0","0","0","1","1","2","1","0","0","1","0","0","0","0","0","1","1","0","0","0","3","1","1","1","0","0","1","2","1","1","1","1","1","1","1","0","1","0","1","2","1","0","1","3","3","1","1","1","2","2","2","1","2","3","1","3","3","3","3","1","3","655.8000000119209","","w","","true","practice","2","down","up","1","w","1","0","1659034730823","","","","","","","",""
"","html-keyboard-response","17","154483","0.0-2.3-0.3","018","20","F","1659034576516","q","q","Only if I get the answer right","You win money","A fixed time limit","5","female","No","no","1","0","0","0","0","1","1","2","1","0","0","1","0","0","0","0","0","1","1","0","0","0","3","1","1","1","0","0","1","2","1","1","1","1","1","1","1","0","1","0","1","2","1","0","1","3","3","1","1","1","2","2","2","1","2","3","1","3","3","3","3","1","3","497.60000002384186","<br><br><br><br><table><tr><td><img src=static/images/oddball_down.png></td><td><img src=static/images/oddball_up.png></td><td><img src=static/images/oddball_up.png></td></tr></table>","81","1","","","","","","","","","","","","","","","","","",""
"","html-keyboard-response","18","156988","0.0-2.3-1.3","018","20","F","1659034576516","q","q","Only if I get the answer right","You win money","A fixed time limit","5","female","No","no","1","0","0","0","0","1","1","2","1","0","0","1","0","0","0","0","0","1","1","0","0","0","3","1","1","1","0","0","1","2","1","1","1","1","1","1","1","0","1","0","1","2","1","0","1","3","3","1","1","1","2","2","2","1","2","3","1","3","3","3","3","1","3","null","<div style=""font-size:75px;""><b>Correct</b></div>","null","","","","","","","","","","","","","","","","","","",""
"","html-keyboard-response","19","157994","0.0-2.3-2.3","018","20","F","1659034576516","q","q","Only if I get the answer right","You win money","A fixed time limit","5","female","No","no","1","0","0","0","0","1","1","2","1","0","0","1","0","0","0","0","0","1","1","0","0","0","3","1","1","1","0","0","1","2","1","1","1","1","1","1","1","0","1","0","1","2","1","0","1","3","3","1","1","1","2","2","2","1","2","3","1","3","3","3","3","1","3","497.60000002384186","","q","","true","practice","3","up","down","0","q","1","0","1659034734832","","","","","","","",""
"","html-keyboard-response","20","158523","0.0-2.4-0.4","018","20","F","1659034576516","q","q","Only if I get the answer right","You win money","A fixed time limit","5","female","No","no","1","0","0","0","0","1","1","2","1","0","0","1","0","0","0","0","0","1","1","0","0","0","3","1","1","1","0","0","1","2","1","1","1","1","1","1","1","0","1","0","1","2","1","0","1","3","3","1","1","1","2","2","2","1","2","3","1","3","3","3","3","1","3","527.9000000357628","<br><br><br><br><table><tr><td><img src=static/images/oddball_up.png></td><td><img src=static/images/oddball_down.png></td><td><img src=static/images/oddball_up.png></td></tr></table>","87","1","","","","","","","","","","","","","","","","","",""
"","html-keyboard-response","21","161029","0.0-2.4-1.4","018","20","F","1659034576516","q","q","Only if I get the answer right","You win money","A fixed time limit","5","female","No","no","1","0","0","0","0","1","1","2","1","0","0","1","0","0","0","0","0","1","1","0","0","0","3","1","1","1","0","0","1","2","1","1","1","1","1","1","1","0","1","0","1","2","1","0","1","3","3","1","1","1","2","2","2","1","2","3","1","3","3","3","3","1","3","null","<div style=""font-size:75px;""><b>Correct</b></div>","null","","","","","","","","","","","","","","","","","","",""
"","html-keyboard-response","22","162035","0.0-2.4-2.4","018","20","F","1659034576516","q","q","Only if I get the answer right","You win money","A fixed time limit","5","female","No","no","1","0","0","0","0","1","1","2","1","0","0","1","0","0","0","0","0","1","1","0","0","0","3","1","1","1","0","0","1","2","1","1","1","1","1","1","1","0","1","0","1","2","1","0","1","3","3","1","1","1","2","2","2","1","2","3","1","3","3","3","3","1","3","527.9000000357628","","w","","true","practice","4","up","down","1","w","1","0","1659034738873","","","","","","","",""
"","html-keyboard-response","23","162611","0.0-2.5-0.5","018","20","F","1659034576516","q","q","Only if I get the answer right","You win money","A fixed time limit","5","female","No","no","1","0","0","0","0","1","1","2","1","0","0","1","0","0","0","0","0","1","1","0","0","0","3","1","1","1","0","0","1","2","1","1","1","1","1","1","1","0","1","0","1","2","1","0","1","3","3","1","1","1","2","2","2","1","2","3","1","3","3","3","3","1","3","575.1999999880791","<br><br><br><br><table><tr><td><img src=static/images/oddball_up.png></td><td><img src=static/images/oddball_down.png></td><td><img src=static/images/oddball_up.png></td></tr></table>","87","1","","","","","","","","","","","","","","","","","",""
"","html-keyboard-response","24","165118","0.0-2.5-1.5","018","20","F","1659034576516","q","q","Only if I get the answer right","You win money","A fixed time limit","5","female","No","no","1","0","0","0","0","1","1","2","1","0","0","1","0","0","0","0","0","1","1","0","0","0","3","1","1","1","0","0","1","2","1","1","1","1","1","1","1","0","1","0","1","2","1","0","1","3","3","1","1","1","2","2","2","1","2","3","1","3","3","3","3","1","3","null","<div style=""font-size:75px;""><b>Correct</b></div>","null","","","","","","","","","","","","","","","","","","",""
"","html-keyboard-response","25","166125","0.0-2.5-2.5","018","20","F","1659034576516","q","q","Only if I get the answer right","You win money","A fixed time limit","5","female","No","no","1","0","0","0","0","1","1","2","1","0","0","1","0","0","0","0","0","1","1","0","0","0","3","1","1","1","0","0","1","2","1","1","1","1","1","1","1","0","1","0","1","2","1","0","1","3","3","1","1","1","2","2","2","1","2","3","1","3","3","3","3","1","3","575.1999999880791","","w","","true","practice","5","up","down","1","w","1","0","1659034742963","","","","","","","",""
"","html-keyboard-response","26","166603","0.0-2.6-0.6","018","20","F","1659034576516","q","q","Only if I get the answer right","You win money","A fixed time limit","5","female","No","no","1","0","0","0","0","1","1","2","1","0","0","1","0","0","0","0","0","1","1","0","0","0","3","1","1","1","0","0","1","2","1","1","1","1","1","1","1","0","1","0","1","2","1","0","1","3","3","1","1","1","2","2","2","1","2","3","1","3","3","3","3","1","3","477.69999998807907","<br><br><br><br><table><tr><td><img src=static/images/oddball_up.png></td><td><img src=static/images/oddball_down.png></td><td><img src=static/images/oddball_down.png></td></tr></table>","81","1","","","","","","","","","","","","","","","","","",""
"","html-keyboard-response","27","169107","0.0-2.6-1.6","018","20","F","1659034576516","q","q","Only if I get the answer right","You win money","A fixed time limit","5","female","No","no","1","0","0","0","0","1","1","2","1","0","0","1","0","0","0","0","0","1","1","0","0","0","3","1","1","1","0","0","1","2","1","1","1","1","1","1","1","0","1","0","1","2","1","0","1","3","3","1","1","1","2","2","2","1","2","3","1","3","3","3","3","1","3","null","<div style=""font-size:75px;""><b>Correct</b></div>","null","","","","","","","","","","","","","","","","","","",""
"","html-keyboard-response","28","170115","0.0-2.6-2.6","018","20","F","1659034576516","q","q","Only if I get the answer right","You win money","A fixed time limit","5","female","No","no","1","0","0","0","0","1","1","2","1","0","0","1","0","0","0","0","0","1","1","0","0","0","3","1","1","1","0","0","1","2","1","1","1","1","1","1","1","0","1","0","1","2","1","0","1","3","3","1","1","1","2","2","2","1","2","3","1","3","3","3","3","1","3","477.69999998807907","","q","","true","practice","6","down","up","0","q","1","0","1659034746953","","","","","","","",""
"","html-keyboard-response","29","170667","0.0-2.7-0.7","018","20","F","1659034576516","q","q","Only if I get the answer right","You win money","A fixed time limit","5","female","No","no","1","0","0","0","0","1","1","2","1","0","0","1","0","0","0","0","0","1","1","0","0","0","3","1","1","1","0","0","1","2","1","1","1","1","1","1","1","0","1","0","1","2","1","0","1","3","3","1","1","1","2","2","2","1","2","3","1","3","3","3","3","1","3","551.5","<br><br><br><br><table><tr><td><img src=static/images/oddball_down.png></td><td><img src=static/images/oddball_up.png></td><td><img src=static/images/oddball_down.png></td></tr></table>","87","1","","","","","","","","","","","","","","","","","",""
"","html-keyboard-response","30","173168","0.0-2.7-1.7","018","20","F","1659034576516","q","q","Only if I get the answer right","You win money","A fixed time limit","5","female","No","no","1","0","0","0","0","1","1","2","1","0","0","1","0","0","0","0","0","1","1","0","0","0","3","1","1","1","0","0","1","2","1","1","1","1","1","1","1","0","1","0","1","2","1","0","1","3","3","1","1","1","2","2","2","1","2","3","1","3","3","3","3","1","3","null","<div style=""font-size:75px;""><b>Correct</b></div>","null","","","","","","","","","","","","","","","","","","",""
"","html-keyboard-response","31","174174","0.0-2.7-2.7","018","20","F","1659034576516","q","q","Only if I get the answer right","You win money","A fixed time limit","5","female","No","no","1","0","0","0","0","1","1","2","1","0","0","1","0","0","0","0","0","1","1","0","0","0","3","1","1","1","0","0","1","2","1","1","1","1","1","1","1","0","1","0","1","2","1","0","1","3","3","1","1","1","2","2","2","1","2","3","1","3","3","3","3","1","3","551.5","","w","","true","practice","7","down","up","1","w","1","0","1659034751012","","","","","","","",""
"","html-keyboard-response","32","174715","0.0-2.8-0.8","018","20","F","1659034576516","q","q","Only if I get the answer right","You win money","A fixed time limit","5","female","No","no","1","0","0","0","0","1","1","2","1","0","0","1","0","0","0","0","0","1","1","0","0","0","3","1","1","1","0","0","1","2","1","1","1","1","1","1","1","0","1","0","1","2","1","0","1","3","3","1","1","1","2","2","2","1","2","3","1","3","3","3","3","1","3","540.5999999642372","<br><br><br><br><table><tr><td><img src=static/images/oddball_up.png></td><td><img src=static/images/oddball_down.png></td><td><img src=static/images/oddball_down.png></td></tr></table>","81","1","","","","","","","","","","","","","","","","","",""
"","html-keyboard-response","33","177223","0.0-2.8-1.8","018","20","F","1659034576516","q","q","Only if I get the answer right","You win money","A fixed time limit","5","female","No","no","1","0","0","0","0","1","1","2","1","0","0","1","0","0","0","0","0","1","1","0","0","0","3","1","1","1","0","0","1","2","1","1","1","1","1","1","1","0","1","0","1","2","1","0","1","3","3","1","1","1","2","2","2","1","2","3","1","3","3","3","3","1","3","null","<div style=""font-size:75px;""><b>Correct</b></div>","null","","","","","","","","","","","","","","","","","","",""
"","html-keyboard-response","34","178231","0.0-2.8-2.8","018","20","F","1659034576516","q","q","Only if I get the answer right","You win money","A fixed time limit","5","female","No","no","1","0","0","0","0","1","1","2","1","0","0","1","0","0","0","0","0","1","1","0","0","0","3","1","1","1","0","0","1","2","1","1","1","1","1","1","1","0","1","0","1","2","1","0","1","3","3","1","1","1","2","2","2","1","2","3","1","3","3","3","3","1","3","540.5999999642372","","q","","true","practice","8","down","up","0","q","1","0","1659034755069","","","","","","","",""
"","html-keyboard-response","35","178755","0.0-2.9-0.9","018","20","F","1659034576516","q","q","Only if I get the answer right","You win money","A fixed time limit","5","female","No","no","1","0","0","0","0","1","1","2","1","0","0","1","0","0","0","0","0","1","1","0","0","0","3","1","1","1","0","0","1","2","1","1","1","1","1","1","1","0","1","0","1","2","1","0","1","3","3","1","1","1","2","2","2","1","2","3","1","3","3","3","3","1","3","523.5999999642372","<br><br><br><br><table><tr><td><img src=static/images/oddball_down.png></td><td><img src=static/images/oddball_down.png></td><td><img src=static/images/oddball_up.png></td></tr></table>","69","1","","","","","","","","","","","","","","","","","",""
"","html-keyboard-response","36","181266","0.0-2.9-1.9","018","20","F","1659034576516","q","q","Only if I get the answer right","You win money","A fixed time limit","5","female","No","no","1","0","0","0","0","1","1","2","1","0","0","1","0","0","0","0","0","1","1","0","0","0","3","1","1","1","0","0","1","2","1","1","1","1","1","1","1","0","1","0","1","2","1","0","1","3","3","1","1","1","2","2","2","1","2","3","1","3","3","3","3","1","3","null","<div style=""font-size:75px;""><b>Correct</b></div>","null","","","","","","","","","","","","","","","","","","",""
"","html-keyboard-response","37","182272","0.0-2.9-2.9","018","20","F","1659034576516","q","q","Only if I get the answer right","You win money","A fixed time limit","5","female","No","no","1","0","0","0","0","1","1","2","1","0","0","1","0","0","0","0","0","1","1","0","0","0","3","1","1","1","0","0","1","2","1","1","1","1","1","1","1","0","1","0","1","2","1","0","1","3","3","1","1","1","2","2","2","1","2","3","1","3","3","3","3","1","3","523.5999999642372","","e","","true","practice","9","down","up","2","e","1","0","1659034759110","","","","","","","",""
"","html-keyboard-response","38","182843","0.0-2.10-0.10","018","20","F","1659034576516","q","q","Only if I get the answer right","You win money","A fixed time limit","5","female","No","no","1","0","0","0","0","1","1","2","1","0","0","1","0","0","0","0","0","1","1","0","0","0","3","1","1","1","0","0","1","2","1","1","1","1","1","1","1","0","1","0","1","2","1","0","1","3","3","1","1","1","2","2","2","1","2","3","1","3","3","3","3","1","3","569.8999999761581","<br><br><br><br><table><tr><td><img src=static/images/oddball_down.png></td><td><img src=static/images/oddball_up.png></td><td><img src=static/images/oddball_up.png></td></tr></table>","81","1","","","","","","","","","","","","","","","","","",""
"","html-keyboard-response","39","185356","0.0-2.10-1.10","018","20","F","1659034576516","q","q","Only if I get the answer right","You win money","A fixed time limit","5","female","No","no","1","0","0","0","0","1","1","2","1","0","0","1","0","0","0","0","0","1","1","0","0","0","3","1","1","1","0","0","1","2","1","1","1","1","1","1","1","0","1","0","1","2","1","0","1","3","3","1","1","1","2","2","2","1","2","3","1","3","3","3","3","1","3","null","<div style=""font-size:75px;""><b>Correct</b></div>","null","","","","","","","","","","","","","","","","","","",""
"","html-keyboard-response","40","186363","0.0-2.10-2.10","018","20","F","1659034576516","q","q","Only if I get the answer right","You win money","A fixed time limit","5","female","No","no","1","0","0","0","0","1","1","2","1","0","0","1","0","0","0","0","0","1","1","0","0","0","3","1","1","1","0","0","1","2","1","1","1","1","1","1","1","0","1","0","1","2","1","0","1","3","3","1","1","1","2","2","2","1","2","3","1","3","3","3","3","1","3","569.8999999761581","","q","","true","practice","10","up","down","0","q","1","0","1659034763202","","","","","","","",""
"","html-keyboard-response","41","186859","0.0-2.11-0.11","018","20","F","1659034576516","q","q","Only if I get the answer right","You win money","A fixed time limit","5","female","No","no","1","0","0","0","0","1","1","2","1","0","0","1","0","0","0","0","0","1","1","0","0","0","3","1","1","1","0","0","1","2","1","1","1","1","1","1","1","0","1","0","1","2","1","0","1","3","3","1","1","1","2","2","2","1","2","3","1","3","3","3","3","1","3","494.69999998807907","<br><br><br><br><table><tr><td><img src=static/images/oddball_up.png></td><td><img src=static/images/oddball_down.png></td><td><img src=static/images/oddball_down.png></td></tr></table>","81","1","","","","","","","","","","","","","","","","","",""
"","html-keyboard-response","42","189365","0.0-2.11-1.11","018","20","F","1659034576516","q","q","Only if I get the answer right","You win money","A fixed time limit","5","female","No","no","1","0","0","0","0","1","1","2","1","0","0","1","0","0","0","0","0","1","1","0","0","0","3","1","1","1","0","0","1","2","1","1","1","1","1","1","1","0","1","0","1","2","1","0","1","3","3","1","1","1","2","2","2","1","2","3","1","3","3","3","3","1","3","null","<div style=""font-size:75px;""><b>Correct</b></div>","null","","","","","","","","","","","","","","","","","","",""
"","html-keyboard-response","43","190371","0.0-2.11-2.11","018","20","F","1659034576516","q","q","Only if I get the answer right","You win money","A fixed time limit","5","female","No","no","1","0","0","0","0","1","1","2","1","0","0","1","0","0","0","0","0","1","1","0","0","0","3","1","1","1","0","0","1","2","1","1","1","1","1","1","1","0","1","0","1","2","1","0","1","3","3","1","1","1","2","2","2","1","2","3","1","3","3","3","3","1","3","494.69999998807907","","q","","true","practice","11","down","up","0","q","1","0","1659034767209","","","","","","","",""
"","html-keyboard-response","44","190883","0.0-2.12-0.12","018","20","F","1659034576516","q","q","Only if I get the answer right","You win money","A fixed time limit","5","female","No","no","1","0","0","0","0","1","1","2","1","0","0","1","0","0","0","0","0","1","1","0","0","0","3","1","1","1","0","0","1","2","1","1","1","1","1","1","1","0","1","0","1","2","1","0","1","3","3","1","1","1","2","2","2","1","2","3","1","3","3","3","3","1","3","511.19999998807907","<br><br><br><br><table><tr><td><img src=static/images/oddball_down.png></td><td><img src=static/images/oddball_down.png></td><td><img src=static/images/oddball_up.png></td></tr></table>","69","1","","","","","","","","","","","","","","","","","",""
"","html-keyboard-response","45","193388","0.0-2.12-1.12","018","20","F","1659034576516","q","q","Only if I get the answer right","You win money","A fixed time limit","5","female","No","no","1","0","0","0","0","1","1","2","1","0","0","1","0","0","0","0","0","1","1","0","0","0","3","1","1","1","0","0","1","2","1","1","1","1","1","1","1","0","1","0","1","2","1","0","1","3","3","1","1","1","2","2","2","1","2","3","1","3","3","3","3","1","3","null","<div style=""font-size:75px;""><b>Correct</b></div>","null","","","","","","","","","","","","","","","","","","",""
"","html-keyboard-response","46","194395","0.0-2.12-2.12","018","20","F","1659034576516","q","q","Only if I get the answer right","You win money","A fixed time limit","5","female","No","no","1","0","0","0","0","1","1","2","1","0","0","1","0","0","0","0","0","1","1","0","0","0","3","1","1","1","0","0","1","2","1","1","1","1","1","1","1","0","1","0","1","2","1","0","1","3","3","1","1","1","2","2","2","1","2","3","1","3","3","3","3","1","3","511.19999998807907","","e","","true","practice","12","down","up","2","e","1","0","1659034771233","","","","","","","",""
"","html-keyboard-response","47","194995","0.0-2.13-0.13","018","20","F","1659034576516","q","q","Only if I get the answer right","You win money","A fixed time limit","5","female","No","no","1","0","0","0","0","1","1","2","1","0","0","1","0","0","0","0","0","1","1","0","0","0","3","1","1","1","0","0","1","2","1","1","1","1","1","1","1","0","1","0","1","2","1","0","1","3","3","1","1","1","2","2","2","1","2","3","1","3","3","3","3","1","3","599.1999999880791","<br><br><br><br><table><tr><td><img src=static/images/oddball_up.png></td><td><img src=static/images/oddball_up.png></td><td><img src=static/images/oddball_down.png></td></tr></table>","69","1","","","","","","","","","","","","","","","","","",""
"","html-keyboard-response","48","197497","0.0-2.13-1.13","018","20","F","1659034576516","q","q","Only if I get the answer right","You win money","A fixed time limit","5","female","No","no","1","0","0","0","0","1","1","2","1","0","0","1","0","0","0","0","0","1","1","0","0","0","3","1","1","1","0","0","1","2","1","1","1","1","1","1","1","0","1","0","1","2","1","0","1","3","3","1","1","1","2","2","2","1","2","3","1","3","3","3","3","1","3","null","<div style=""font-size:75px;""><b>Correct</b></div>","null","","","","","","","","","","","","","","","","","","",""
"","html-keyboard-response","49","198502","0.0-2.13-2.13","018","20","F","1659034576516","q","q","Only if I get the answer right","You win money","A fixed time limit","5","female","No","no","1","0","0","0","0","1","1","2","1","0","0","1","0","0","0","0","0","1","1","0","0","0","3","1","1","1","0","0","1","2","1","1","1","1","1","1","1","0","1","0","1","2","1","0","1","3","3","1","1","1","2","2","2","1","2","3","1","3","3","3","3","1","3","599.1999999880791","","e","","true","practice","13","up","down","2","e","1","0","1659034775340","","","","","","","",""
"","html-keyboard-response","50","199052","0.0-2.14-0.14","018","20","F","1659034576516","q","q","Only if I get the answer right","You win money","A fixed time limit","5","female","No","no","1","0","0","0","0","1","1","2","1","0","0","1","0","0","0","0","0","1","1","0","0","0","3","1","1","1","0","0","1","2","1","1","1","1","1","1","1","0","1","0","1","2","1","0","1","3","3","1","1","1","2","2","2","1","2","3","1","3","3","3","3","1","3","548","<br><br><br><br><table><tr><td><img src=static/images/oddball_down.png></td><td><img src=static/images/oddball_up.png></td><td><img src=static/images/oddball_down.png></td></tr></table>","87","1","","","","","","","","","","","","","","","","","",""
"","html-keyboard-response","51","201561","0.0-2.14-1.14","018","20","F","1659034576516","q","q","Only if I get the answer right","You win money","A fixed time limit","5","female","No","no","1","0","0","0","0","1","1","2","1","0","0","1","0","0","0","0","0","1","1","0","0","0","3","1","1","1","0","0","1","2","1","1","1","1","1","1","1","0","1","0","1","2","1","0","1","3","3","1","1","1","2","2","2","1","2","3","1","3","3","3","3","1","3","null","<div style=""font-size:75px;""><b>Correct</b></div>","null","","","","","","","","","","","","","","","","","","",""
"","html-keyboard-response","52","202568","0.0-2.14-2.14","018","20","F","1659034576516","q","q","Only if I get the answer right","You win money","A fixed time limit","5","female","No","no","1","0","0","0","0","1","1","2","1","0","0","1","0","0","0","0","0","1","1","0","0","0","3","1","1","1","0","0","1","2","1","1","1","1","1","1","1","0","1","0","1","2","1","0","1","3","3","1","1","1","2","2","2","1","2","3","1","3","3","3","3","1","3","548","","w","","true","practice","14","down","up","1","w","1","0","1659034779406","","","","","","","",""
"","html-keyboard-response","53","203067","0.0-2.15-0.15","018","20","F","1659034576516","q","q","Only if I get the answer right","You win money","A fixed time limit","5","female","No","no","1","0","0","0","0","1","1","2","1","0","0","1","0","0","0","0","0","1","1","0","0","0","3","1","1","1","0","0","1","2","1","1","1","1","1","1","1","0","1","0","1","2","1","0","1","3","3","1","1","1","2","2","2","1","2","3","1","3","3","3","3","1","3","498.9000000357628","<br><br><br><br><table><tr><td><img src=static/images/oddball_up.png></td><td><img src=static/images/oddball_down.png></td><td><img src=static/images/oddball_up.png></td></tr></table>","87","1","","","","","","","","","","","","","","","","","",""
"","html-keyboard-response","54","205570","0.0-2.15-1.15","018","20","F","1659034576516","q","q","Only if I get the answer right","You win money","A fixed time limit","5","female","No","no","1","0","0","0","0","1","1","2","1","0","0","1","0","0","0","0","0","1","1","0","0","0","3","1","1","1","0","0","1","2","1","1","1","1","1","1","1","0","1","0","1","2","1","0","1","3","3","1","1","1","2","2","2","1","2","3","1","3","3","3","3","1","3","null","<div style=""font-size:75px;""><b>Correct</b></div>","null","","","","","","","","","","","","","","","","","","",""
"","html-keyboard-response","55","206576","0.0-2.15-2.15","018","20","F","1659034576516","q","q","Only if I get the answer right","You win money","A fixed time limit","5","female","No","no","1","0","0","0","0","1","1","2","1","0","0","1","0","0","0","0","0","1","1","0","0","0","3","1","1","1","0","0","1","2","1","1","1","1","1","1","1","0","1","0","1","2","1","0","1","3","3","1","1","1","2","2","2","1","2","3","1","3","3","3","3","1","3","498.9000000357628","","w","","true","practice","15","up","down","1","w","1","0","1659034783414","","","","","","","",""
"","html-keyboard-response","56","207115","0.0-2.16-0.16","018","20","F","1659034576516","q","q","Only if I get the answer right","You win money","A fixed time limit","5","female","No","no","1","0","0","0","0","1","1","2","1","0","0","1","0","0","0","0","0","1","1","0","0","0","3","1","1","1","0","0","1","2","1","1","1","1","1","1","1","0","1","0","1","2","1","0","1","3","3","1","1","1","2","2","2","1","2","3","1","3","3","3","3","1","3","538.2000000476837","<br><br><br><br><table><tr><td><img src=static/images/oddball_down.png></td><td><img src=static/images/oddball_up.png></td><td><img src=static/images/oddball_down.png></td></tr></table>","87","1","","","","","","","","","","","","","","","","","",""
"","html-keyboard-response","57","209626","0.0-2.16-1.16","018","20","F","1659034576516","q","q","Only if I get the answer right","You win money","A fixed time limit","5","female","No","no","1","0","0","0","0","1","1","2","1","0","0","1","0","0","0","0","0","1","1","0","0","0","3","1","1","1","0","0","1","2","1","1","1","1","1","1","1","0","1","0","1","2","1","0","1","3","3","1","1","1","2","2","2","1","2","3","1","3","3","3","3","1","3","null","<div style=""font-size:75px;""><b>Correct</b></div>","null","","","","","","","","","","","","","","","","","","",""
"","html-keyboard-response","58","210633","0.0-2.16-2.16","018","20","F","1659034576516","q","q","Only if I get the answer right","You win money","A fixed time limit","5","female","No","no","1","0","0","0","0","1","1","2","1","0","0","1","0","0","0","0","0","1","1","0","0","0","3","1","1","1","0","0","1","2","1","1","1","1","1","1","1","0","1","0","1","2","1","0","1","3","3","1","1","1","2","2","2","1","2","3","1","3","3","3","3","1","3","538.2000000476837","","w","","true","practice","16","down","up","1","w","1","0","1659034787471","","","","","","","",""
"","html-keyboard-response","59","211179","0.0-2.17-0.17","018","20","F","1659034576516","q","q","Only if I get the answer right","You win money","A fixed time limit","5","female","No","no","1","0","0","0","0","1","1","2","1","0","0","1","0","0","0","0","0","1","1","0","0","0","3","1","1","1","0","0","1","2","1","1","1","1","1","1","1","0","1","0","1","2","1","0","1","3","3","1","1","1","2","2","2","1","2","3","1","3","3","3","3","1","3","546","<br><br><br><br><table><tr><td><img src=static/images/oddball_down.png></td><td><img src=static/images/oddball_up.png></td><td><img src=static/images/oddball_up.png></td></tr></table>","81","1","","","","","","","","","","","","","","","","","",""
"","html-keyboard-response","60","213682","0.0-2.17-1.17","018","20","F","1659034576516","q","q","Only if I get the answer right","You win money","A fixed time limit","5","female","No","no","1","0","0","0","0","1","1","2","1","0","0","1","0","0","0","0","0","1","1","0","0","0","3","1","1","1","0","0","1","2","1","1","1","1","1","1","1","0","1","0","1","2","1","0","1","3","3","1","1","1","2","2","2","1","2","3","1","3","3","3","3","1","3","null","<div style=""font-size:75px;""><b>Correct</b></div>","null","","","","","","","","","","","","","","","","","","",""
"","html-keyboard-response","61","214690","0.0-2.17-2.17","018","20","F","1659034576516","q","q","Only if I get the answer right","You win money","A fixed time limit","5","female","No","no","1","0","0","0","0","1","1","2","1","0","0","1","0","0","0","0","0","1","1","0","0","0","3","1","1","1","0","0","1","2","1","1","1","1","1","1","1","0","1","0","1","2","1","0","1","3","3","1","1","1","2","2","2","1","2","3","1","3","3","3","3","1","3","546","","q","","true","practice","17","up","down","0","q","1","0","1659034791528","","","","","","","",""
"","html-keyboard-response","62","215267","0.0-2.18-0.18","018","20","F","1659034576516","q","q","Only if I get the answer right","You win money","A fixed time limit","5","female","No","no","1","0","0","0","0","1","1","2","1","0","0","1","0","0","0","0","0","1","1","0","0","0","3","1","1","1","0","0","1","2","1","1","1","1","1","1","1","0","1","0","1","2","1","0","1","3","3","1","1","1","2","2","2","1","2","3","1","3","3","3","3","1","3","576.5","<br><br><br><br><table><tr><td><img src=static/images/oddball_up.png></td><td><img src=static/images/oddball_up.png></td><td><img src=static/images/oddball_down.png></td></tr></table>","69","1","","","","","","","","","","","","","","","","","",""
"","html-keyboard-response","63","217782","0.0-2.18-1.18","018","20","F","1659034576516","q","q","Only if I get the answer right","You win money","A fixed time limit","5","female","No","no","1","0","0","0","0","1","1","2","1","0","0","1","0","0","0","0","0","1","1","0","0","0","3","1","1","1","0","0","1","2","1","1","1","1","1","1","1","0","1","0","1","2","1","0","1","3","3","1","1","1","2","2","2","1","2","3","1","3","3","3","3","1","3","null","<div style=""font-size:75px;""><b>Correct</b></div>","null","","","","","","","","","","","","","","","","","","",""
"","html-keyboard-response","64","218799","0.0-2.18-2.18","018","20","F","1659034576516","q","q","Only if I get the answer right","You win money","A fixed time limit","5","female","No","no","1","0","0","0","0","1","1","2","1","0","0","1","0","0","0","0","0","1","1","0","0","0","3","1","1","1","0","0","1","2","1","1","1","1","1","1","1","0","1","0","1","2","1","0","1","3","3","1","1","1","2","2","2","1","2","3","1","3","3","3","3","1","3","576.5","","e","","true","practice","18","up","down","2","e","1","0","1659034795637","","","","","","","",""
"","html-keyboard-response","65","219379","0.0-2.19-0.19","018","20","F","1659034576516","q","q","Only if I get the answer right","You win money","A fixed time limit","5","female","No","no","1","0","0","0","0","1","1","2","1","0","0","1","0","0","0","0","0","1","1","0","0","0","3","1","1","1","0","0","1","2","1","1","1","1","1","1","1","0","1","0","1","2","1","0","1","3","3","1","1","1","2","2","2","1","2","3","1","3","3","3","3","1","3","579.8000000119209","<br><br><br><br><table><tr><td><img src=static/images/oddball_up.png></td><td><img src=static/images/oddball_down.png></td><td><img src=static/images/oddball_down.png></td></tr></table>","81","1","","","","","","","","","","","","","","","","","",""
"","html-keyboard-response","66","221886","0.0-2.19-1.19","018","20","F","1659034576516","q","q","Only if I get the answer right","You win money","A fixed time limit","5","female","No","no","1","0","0","0","0","1","1","2","1","0","0","1","0","0","0","0","0","1","1","0","0","0","3","1","1","1","0","0","1","2","1","1","1","1","1","1","1","0","1","0","1","2","1","0","1","3","3","1","1","1","2","2","2","1","2","3","1","3","3","3","3","1","3","null","<div style=""font-size:75px;""><b>Correct</b></div>","null","","","","","","","","","","","","","","","","","","",""
"","html-keyboard-response","67","222891","0.0-2.19-2.19","018","20","F","1659034576516","q","q","Only if I get the answer right","You win money","A fixed time limit","5","female","No","no","1","0","0","0","0","1","1","2","1","0","0","1","0","0","0","0","0","1","1","0","0","0","3","1","1","1","0","0","1","2","1","1","1","1","1","1","1","0","1","0","1","2","1","0","1","3","3","1","1","1","2","2","2","1","2","3","1","3","3","3","3","1","3","579.8000000119209","","q","","true","practice","19","down","up","0","q","1","0","1659034799729","","","","","","","",""
"","image-keyboard-response","68","231867","0.0-3.0-0.0","018","20","F","1659034576516","q","q","Only if I get the answer right","You win money","A fixed time limit","5","female","No","no","1","0","0","0","0","1","1","2","1","0","0","1","0","0","0","0","0","1","1","0","0","0","3","1","1","1","0","0","1","2","1","1","1","1","1","1","1","0","1","0","1","2","1","0","1","3","3","1","1","1","2","2","2","1","2","3","1","3","3","3","3","1","3","8975.700000047684","static/images/instructions/Slide8.png","39","","","","","","","","","","","","","","","","","","",""
"","image-keyboard-response","69","256211","0.0-3.1-0.1","018","20","F","1659034576516","q","q","Only if I get the answer right","You win money","A fixed time limit","5","female","No","no","1","0","0","0","0","1","1","2","1","0","0","1","0","0","0","0","0","1","1","0","0","0","3","1","1","1","0","0","1","2","1","1","1","1","1","1","1","0","1","0","1","2","1","0","1","3","3","1","1","1","2","2","2","1","2","3","1","3","3","3","3","1","3","24343.30000001192","static/images/instructions/Slide9.png","39","","","","","","","","","","","","","","","","","","",""
"","image-keyboard-response","70","271062","0.0-3.2-0.2","018","20","F","1659034576516","q","q","Only if I get the answer right","You win money","A fixed time limit","5","female","No","no","1","0","0","0","0","1","1","2","1","0","0","1","0","0","0","0","0","1","1","0","0","0","3","1","1","1","0","0","1","2","1","1","1","1","1","1","1","0","1","0","1","2","1","0","1","3","3","1","1","1","2","2","2","1","2","3","1","3","3","3","3","1","3","14855.5","static/images/instructions/Slide10.png","39","","","","","","","","","","","","","","","","","","",""
"","image-keyboard-response","71","301797","0.0-3.3-0.3","018","20","F","1659034576516","q","q","Only if I get the answer right","You win money","A fixed time limit","5","female","No","no","1","0","0","0","0","1","1","2","1","0","0","1","0","0","0","0","0","1","1","0","0","0","3","1","1","1","0","0","1","2","1","1","1","1","1","1","1","0","1","0","1","2","1","0","1","3","3","1","1","1","2","2","2","1","2","3","1","3","3","3","3","1","3","30734.80000001192","static/images/instructions/Slide11.png","39","","","","","","","","","","","","","","","","","","",""
"","image-keyboard-response","72","307877","0.0-3.4-0.4","018","20","F","1659034576516","q","q","Only if I get the answer right","You win money","A fixed time limit","5","female","No","no","1","0","0","0","0","1","1","2","1","0","0","1","0","0","0","0","0","1","1","0","0","0","3","1","1","1","0","0","1","2","1","1","1","1","1","1","1","0","1","0","1","2","1","0","1","3","3","1","1","1","2","2","2","1","2","3","1","3","3","3","3","1","3","6079.700000047684","static/images/instructions/Slide12.png","39","","","","","","","","","","","","","","","","","","",""
"","image-keyboard-response","73","314294","0.0-3.5-0.5","018","20","F","1659034576516","q","q","Only if I get the answer right","You win money","A fixed time limit","5","female","No","no","1","0","0","0","0","1","1","2","1","0","0","1","0","0","0","0","0","1","1","0","0","0","3","1","1","1","0","0","1","2","1","1","1","1","1","1","1","0","1","0","1","2","1","0","1","3","3","1","1","1","2","2","2","1","2","3","1","3","3","3","3","1","3","6415.5","static/images/instructions/Slide13.png","39","","","","","","","","","","","","","","","","","","",""
"","image-keyboard-response","74","330501","0.0-3.6-0.6","018","20","F","1659034576516","q","q","Only if I get the answer right","You win money","A fixed time limit","5","female","No","no","1","0","0","0","0","1","1","2","1","0","0","1","0","0","0","0","0","1","1","0","0","0","3","1","1","1","0","0","1","2","1","1","1","1","1","1","1","0","1","0","1","2","1","0","1","3","3","1","1","1","2","2","2","1","2","3","1","3","3","3","3","1","3","16207","static/images/instructions/Slide14.png","39","","","","","","","","","","","","","","","","","","",""
"","image-keyboard-response","75","339275","0.0-3.7-0.7","018","20","F","1659034576516","q","q","Only if I get the answer right","You win money","A fixed time limit","5","female","No","no","1","0","0","0","0","1","1","2","1","0","0","1","0","0","0","0","0","1","1","0","0","0","3","1","1","1","0","0","1","2","1","1","1","1","1","1","1","0","1","0","1","2","1","0","1","3","3","1","1","1","2","2","2","1","2","3","1","3","3","3","3","1","3","8776.300000011921","static/images/instructions/Slide15.png","39","","","","","","","","","","","","","","","","","","",""
"","image-keyboard-response","76","384771","0.0-3.8-0.8","018","20","F","1659034576516","q","q","Only if I get the answer right","You win money","A fixed time limit","5","female","No","no","1","0","0","0","0","1","1","2","1","0","0","1","0","0","0","0","0","1","1","0","0","0","3","1","1","1","0","0","1","2","1","1","1","1","1","1","1","0","1","0","1","2","1","0","1","3","3","1","1","1","2","2","2","1","2","3","1","3","3","3","3","1","3","45494.90000003576","static/images/instructions/Slide16.png","39","","","","","","","","","","","","","","","","","","",""
"","image-keyboard-response","77","392075","0.0-3.9-0.9","018","20","F","1659034576516","q","q","Only if I get the answer right","You win money","A fixed time limit","5","female","No","no","1","0","0","0","0","1","1","2","1","0","0","1","0","0","0","0","0","1","1","0","0","0","3","1","1","1","0","0","1","2","1","1","1","1","1","1","1","0","1","0","1","2","1","0","1","3","3","1","1","1","2","2","2","1","2","3","1","3","3","3","3","1","3","7303.199999988079","static/images/instructions/Slide17.png","39","","","","","","","","","","","","","","","","","","",""
"","survey-multi-choice","78","454791","0.0-4.0","018","20","F","1659034576516","q","q","Only if I get the answer right","You win money","A fixed time limit","5","female","No","no","1","0","0","0","0","1","1","2","1","0","0","1","0","0","0","0","0","1","1","0","0","0","3","1","1","1","0","0","1","2","1","1","1","1","1","1","1","0","1","0","1","2","1","0","1","3","3","1","1","1","2","2","2","1","2","3","1","3","3","3","3","1","3","62644","","","","","","","","","","","","","","{""q1"":""q"",""q2"":""q"",""q3"":""Only if I get the answer right"",""q4"":""You win money"",""q5"":""A fixed time limit""}","[4,1,0,3,2]","","","","","",""
"","image-keyboard-response","79","466019","0.0-5.0-0.0","018","20","F","1659034576516","q","q","Only if I get the answer right","You win money","A fixed time limit","5","female","No","no","1","0","0","0","0","1","1","2","1","0","0","1","0","0","0","0","0","1","1","0","0","0","3","1","1","1","0","0","1","2","1","1","1","1","1","1","1","0","1","0","1","2","1","0","1","3","3","1","1","1","2","2","2","1","2","3","1","3","3","3","3","1","3","11169.800000011921","static/images/instructions/Slide18.png","39","","","","","","","","","","","","","","","","","","",""
"","html-keyboard-response","80","467030","0.0-6.0-0.0-0.0","018","20","F","1659034576516","q","q","Only if I get the answer right","You win money","A fixed time limit","5","female","No","no","1","0","0","0","0","1","1","2","1","0","0","1","0","0","0","0","0","1","1","0","0","0","3","1","1","1","0","0","1","2","1","1","1","1","1","1","1","0","1","0","1","2","1","0","1","3","3","1","1","1","2","2","2","1","2","3","1","3","3","3","3","1","3","null","<div style=""font-size:75px;"">3</div>","null","","","","","","","","","","","","","","","","","","",""
"","html-keyboard-response","81","468031","0.0-6.0-0.1-0.1","018","20","F","1659034576516","q","q","Only if I get the answer right","You win money","A fixed time limit","5","female","No","no","1","0","0","0","0","1","1","2","1","0","0","1","0","0","0","0","0","1","1","0","0","0","3","1","1","1","0","0","1","2","1","1","1","1","1","1","1","0","1","0","1","2","1","0","1","3","3","1","1","1","2","2","2","1","2","3","1","3","3","3","3","1","3","null","<div style=""font-size:75px;"">2</div>","null","","","","","","","","","","","","","","","","","","",""
"","html-keyboard-response","82","469035","0.0-6.0-0.2-0.2","018","20","F","1659034576516","q","q","Only if I get the answer right","You win money","A fixed time limit","5","female","No","no","1","0","0","0","0","1","1","2","1","0","0","1","0","0","0","0","0","1","1","0","0","0","3","1","1","1","0","0","1","2","1","1","1","1","1","1","1","0","1","0","1","2","1","0","1","3","3","1","1","1","2","2","2","1","2","3","1","3","3","3","3","1","3","null","<div style=""font-size:75px;"">1</div>","null","","","","","","","","","","","","","","","","","","",""
"","html-keyboard-response","83","469596","0.0-6.0-1.0-0.0","018","20","F","1659034576516","q","q","Only if I get the answer right","You win money","A fixed time limit","5","female","No","no","1","0","0","0","0","1","1","2","1","0","0","1","0","0","0","0","0","1","1","0","0","0","3","1","1","1","0","0","1","2","1","1","1","1","1","1","1","0","1","0","1","2","1","0","1","3","3","1","1","1","2","2","2","1","2","3","1","3","3","3","3","1","3","530.5","<br><br><br><br><table><tr><td><img src=static/images/oddball_down.png></td><td><img src=static/images/oddball_down.png></td><td><img src=static/images/oddball_up.png></td></tr></table>","69","1","","","","","","","","","","","","","","","","","",""
"","html-keyboard-response","84","469608","0.0-6.0-1.0-1.0","018","20","F","1659034576516","q","q","Only if I get the answer right","You win money","A fixed time limit","5","female","No","no","1","0","0","0","0","1","1","2","1","0","0","1","0","0","0","0","0","1","1","0","0","0","3","1","1","1","0","0","1","2","1","1","1","1","1","1","1","0","1","0","1","2","1","0","1","3","3","1","1","1","2","2","2","1","2","3","1","3","3","3","3","1","3","530.5","","e","","true","0","0","down","up","2","e","1","0","1659035046446","","","true","60","0","0","0.25","null"
"","html-keyboard-response","85","470332","0.0-6.0-1.1-0.1","018","20","F","1659034576516","q","q","Only if I get the answer right","You win money","A fixed time limit","5","female","No","no","1","0","0","0","0","1","1","2","1","0","0","1","0","0","0","0","0","1","1","0","0","0","3","1","1","1","0","0","1","2","1","1","1","1","1","1","1","0","1","0","1","2","1","0","1","3","3","1","1","1","2","2","2","1","2","3","1","3","3","3","3","1","3","722.1999999880791","<br><br><br><br><table><tr><td><img src=static/images/oddball_down.png></td><td><img src=static/images/oddball_up.png></td><td><img src=static/images/oddball_up.png></td></tr></table>","81","1","","","","","","","","","","","","","","","","","",""
"","html-keyboard-response","86","470334","0.0-6.0-1.1-1.1","018","20","F","1659034576516","q","q","Only if I get the answer right","You win money","A fixed time limit","5","female","No","no","1","0","0","0","0","1","1","2","1","0","0","1","0","0","0","0","0","1","1","0","0","0","3","1","1","1","0","0","1","2","1","1","1","1","1","1","1","0","1","0","1","2","1","0","1","3","3","1","1","1","2","2","2","1","2","3","1","3","3","3","3","1","3","722.1999999880791","","q","","true","0","1","up","down","0","q","1","0","1659035047172","","","true","60","1","0.016666666666666666","0.25","false"
"","html-keyboard-response","87","470948","0.0-6.0-1.2-0.2","018","20","F","1659034576516","q","q","Only if I get the answer right","You win money","A fixed time limit","5","female","No","no","1","0","0","0","0","1","1","2","1","0","0","1","0","0","0","0","0","1","1","0","0","0","3","1","1","1","0","0","1","2","1","1","1","1","1","1","1","0","1","0","1","2","1","0","1","3","3","1","1","1","2","2","2","1","2","3","1","3","3","3","3","1","3","612.4000000357628","<br><br><br><br><table><tr><td><img src=static/images/oddball_up.png></td><td><img src=static/images/oddball_down.png></td><td><img src=static/images/oddball_down.png></td></tr></table>","81","1","","","","","","","","","","","","","","","","","",""
"","html-keyboard-response","88","470951","0.0-6.0-1.2-1.2","018","20","F","1659034576516","q","q","Only if I get the answer right","You win money","A fixed time limit","5","female","No","no","1","0","0","0","0","1","1","2","1","0","0","1","0","0","0","0","0","1","1","0","0","0","3","1","1","1","0","0","1","2","1","1","1","1","1","1","1","0","1","0","1","2","1","0","1","3","3","1","1","1","2","2","2","1","2","3","1","3","3","3","3","1","3","612.4000000357628","","q","","true","0","2","down","up","0","q","1","0","1659035047789","","","true","60","2","0.03333333333333333","0.25","false"
"","html-keyboard-response","89","471459","0.0-6.0-1.3-0.3","018","20","F","1659034576516","q","q","Only if I get the answer right","You win money","A fixed time limit","5","female","No","no","1","0","0","0","0","1","1","2","1","0","0","1","0","0","0","0","0","1","1","0","0","0","3","1","1","1","0","0","1","2","1","1","1","1","1","1","1","0","1","0","1","2","1","0","1","3","3","1","1","1","2","2","2","1","2","3","1","3","3","3","3","1","3","507.7999999523163","<br><br><br><br><table><tr><td><img src=static/images/oddball_down.png></td><td><img src=static/images/oddball_down.png></td><td><img src=static/images/oddball_up.png></td></tr></table>","69","1","","","","","","","","","","","","","","","","","",""
"","html-keyboard-response","90","471462","0.0-6.0-1.3-1.3","018","20","F","1659034576516","q","q","Only if I get the answer right","You win money","A fixed time limit","5","female","No","no","1","0","0","0","0","1","1","2","1","0","0","1","0","0","0","0","0","1","1","0","0","0","3","1","1","1","0","0","1","2","1","1","1","1","1","1","1","0","1","0","1","2","1","0","1","3","3","1","1","1","2","2","2","1","2","3","1","3","3","3","3","1","3","507.7999999523163","","e","","true","0","3","down","up","2","e","1","0","1659035048300","","","true","60","3","0.05","0.25","false"
"","html-keyboard-response","91","471916","0.0-6.0-1.4-0.4","018","20","F","1659034576516","q","q","Only if I get the answer right","You win money","A fixed time limit","5","female","No","no","1","0","0","0","0","1","1","2","1","0","0","1","0","0","0","0","0","1","1","0","0","0","3","1","1","1","0","0","1","2","1","1","1","1","1","1","1","0","1","0","1","2","1","0","1","3","3","1","1","1","2","2","2","1","2","3","1","3","3","3","3","1","3","452.7000000476837","<br><br><br><br><table><tr><td><img src=static/images/oddball_up.png></td><td><img src=static/images/oddball_down.png></td><td><img src=static/images/oddball_down.png></td></tr></table>","81","1","","","","","","","","","","","","","","","","","",""
"","html-keyboard-response","92","471918","0.0-6.0-1.4-1.4","018","20","F","1659034576516","q","q","Only if I get the answer right","You win money","A fixed time limit","5","female","No","no","1","0","0","0","0","1","1","2","1","0","0","1","0","0","0","0","0","1","1","0","0","0","3","1","1","1","0","0","1","2","1","1","1","1","1","1","1","0","1","0","1","2","1","0","1","3","3","1","1","1","2","2","2","1","2","3","1","3","3","3","3","1","3","452.7000000476837","","q","","true","0","4","down","up","0","q","1","0","1659035048756","","","true","60","4","0.06666666666666667","0.25","false"
"","html-keyboard-response","93","472548","0.0-6.0-1.5-0.5","018","20","F","1659034576516","q","q","Only if I get the answer right","You win money","A fixed time limit","5","female","No","no","1","0","0","0","0","1","1","2","1","0","0","1","0","0","0","0","0","1","1","0","0","0","3","1","1","1","0","0","1","2","1","1","1","1","1","1","1","0","1","0","1","2","1","0","1","3","3","1","1","1","2","2","2","1","2","3","1","3","3","3","3","1","3","628.5","<br><br><br><br><table><tr><td><img src=static/images/oddball_down.png></td><td><img src=static/images/oddball_up.png></td><td><img src=static/images/oddball_up.png></td></tr></table>","81","1","","","","","","","","","","","","","","","","","",""
"","html-keyboard-response","94","472550","0.0-6.0-1.5-1.5","018","20","F","1659034576516","q","q","Only if I get the answer right","You win money","A fixed time limit","5","female","No","no","1","0","0","0","0","1","1","2","1","0","0","1","0","0","0","0","0","1","1","0","0","0","3","1","1","1","0","0","1","2","1","1","1","1","1","1","1","0","1","0","1","2","1","0","1","3","3","1","1","1","2","2","2","1","2","3","1","3","3","3","3","1","3","628.5","","q","","true","0","5","up","down","0","q","1","0","1659035049388","","","true","60","5","0.08333333333333333","0.25","false"
"","html-keyboard-response","95","473020","0.0-6.0-1.6-0.6","018","20","F","1659034576516","q","q","Only if I get the answer right","You win money","A fixed time limit","5","female","No","no","1","0","0","0","0","1","1","2","1","0","0","1","0","0","0","0","0","1","1","0","0","0","3","1","1","1","0","0","1","2","1","1","1","1","1","1","1","0","1","0","1","2","1","0","1","3","3","1","1","1","2","2","2","1","2","3","1","3","3","3","3","1","3","468.30000001192093","<br><br><br><br><table><tr><td><img src=static/images/oddball_down.png></td><td><img src=static/images/oddball_up.png></td><td><img src=static/images/oddball_down.png></td></tr></table>","69","1","","","","","","","","","","","","","","","","","",""
"","html-keyboard-response","96","473023","0.0-6.0-1.6-1.6","018","20","F","1659034576516","q","q","Only if I get the answer right","You win money","A fixed time limit","5","female","No","no","1","0","0","0","0","1","1","2","1","0","0","1","0","0","0","0","0","1","1","0","0","0","3","1","1","1","0","0","1","2","1","1","1","1","1","1","1","0","1","0","1","2","1","0","1","3","3","1","1","1","2","2","2","1","2","3","1","3","3","3","3","1","3","468.30000001192093","","e","","true","0","6","down","up","1","w","0","0","1659035049861","","","true","60","6","0.1","0.25","false"
"","html-keyboard-response","97","473778","0.0-6.0-1.7-0.7","018","20","F","1659034576516","q","q","Only if I get the answer right","You win money","A fixed time limit","5","female","No","no","1","0","0","0","0","1","1","2","1","0","0","1","0","0","0","0","0","1","1","0","0","0","3","1","1","1","0","0","1","2","1","1","1","1","1","1","1","0","1","0","1","2","1","0","1","3","3","1","1","1","2","2","2","1","2","3","1","3","3","3","3","1","3","null","<br><br><br><br><table><tr><td><img src=static/images/oddball_down.png></td><td><img src=static/images/oddball_down.png></td><td><img src=static/images/oddball_up.png></td></tr></table>","null","","","","","","","","","","","","","","","","","","",""
"","html-keyboard-response","98","473780","0.0-6.0-1.7-1.7","018","20","F","1659034576516","q","q","Only if I get the answer right","You win money","A fixed time limit","5","female","No","no","1","0","0","0","0","1","1","2","1","0","0","1","0","0","0","0","0","1","1","0","0","0","3","1","1","1","0","0","1","2","1","1","1","1","1","1","1","0","1","0","1","2","1","0","1","3","3","1","1","1","2","2","2","1","2","3","1","3","3","3","3","1","3","null","","null","","true","0","7","down","up","2","e","0","0","1659035050618","","","true","60","7","0.1","0.25","true"
"","html-keyboard-response","99","473827","0.0-6.0-1.8-0.8","018","20","F","1659034576516","q","q","Only if I get the answer right","You win money","A fixed time limit","5","female","No","no","1","0","0","0","0","1","1","2","1","0","0","1","0","0","0","0","0","1","1","0","0","0","3","1","1","1","0","0","1","2","1","1","1","1","1","1","1","0","1","0","1","2","1","0","1","3","3","1","1","1","2","2","2","1","2","3","1","3","3","3","3","1","3","46.299999952316284","<br><br><br><br><table><tr><td><img src=static/images/oddball_up.png></td><td><img src=static/images/oddball_up.png></td><td><img src=static/images/oddball_down.png></td></tr></table>","69","1","","","","","","","","","","","","","","","","","",""
"","html-keyboard-response","100","473829","0.0-6.0-1.8-1.8","018","20","F","1659034576516","q","q","Only if I get the answer right","You win money","A fixed time limit","5","female","No","no","1","0","0","0","0","1","1","2","1","0","0","1","0","0","0","0","0","1","1","0","0","0","3","1","1","1","0","0","1","2","1","1","1","1","1","1","1","0","1","0","1","2","1","0","1","3","3","1","1","1","2","2","2","1","2","3","1","3","3","3","3","1","3","46.299999952316284","","e","","true","0","8","up","down","2","e","1","0","1659035050667","","","true","60","8","0.1","0.25","false"
"","html-keyboard-response","101","474547","0.0-6.0-1.9-0.9","018","20","F","1659034576516","q","q","Only if I get the answer right","You win money","A fixed time limit","5","female","No","no","1","0","0","0","0","1","1","2","1","0","0","1","0","0","0","0","0","1","1","0","0","0","3","1","1","1","0","0","1","2","1","1","1","1","1","1","1","0","1","0","1","2","1","0","1","3","3","1","1","1","2","2","2","1","2","3","1","3","3","3","3","1","3","717.6999999880791","<br><br><br><br><table><tr><td><img src=static/images/oddball_up.png></td><td><img src=static/images/oddball_up.png></td><td><img src=static/images/oddball_down.png></td></tr></table>","69","1","","","","","","","","","","","","","","","","","",""
"","html-keyboard-response","102","474550","0.0-6.0-1.9-1.9","018","20","F","1659034576516","q","q","Only if I get the answer right","You win money","A fixed time limit","5","female","No","no","1","0","0","0","0","1","1","2","1","0","0","1","0","0","0","0","0","1","1","0","0","0","3","1","1","1","0","0","1","2","1","1","1","1","1","1","1","0","1","0","1","2","1","0","1","3","3","1","1","1","2","2","2","1","2","3","1","3","3","3","3","1","3","717.6999999880791","","e","","true","0","9","up","down","2","e","1","0","1659035051388","","","true","60","9","0.11666666666666667","0.25","false"
"","html-keyboard-response","103","475147","0.0-6.0-1.10-0.10","018","20","F","1659034576516","q","q","Only if I get the answer right","You win money","A fixed time limit","5","female","No","no","1","0","0","0","0","1","1","2","1","0","0","1","0","0","0","0","0","1","1","0","0","0","3","1","1","1","0","0","1","2","1","1","1","1","1","1","1","0","1","0","1","2","1","0","1","3","3","1","1","1","2","2","2","1","2","3","1","3","3","3","3","1","3","596.2999999523163","<br><br><br><br><table><tr><td><img src=static/images/oddball_down.png></td><td><img src=static/images/oddball_up.png></td><td><img src=static/images/oddball_down.png></td></tr></table>","87","1","","","","","","","","","","","","","","","","","",""
"","html-keyboard-response","104","475150","0.0-6.0-1.10-1.10","018","20","F","1659034576516","q","q","Only if I get the answer right","You win money","A fixed time limit","5","female","No","no","1","0","0","0","0","1","1","2","1","0","0","1","0","0","0","0","0","1","1","0","0","0","3","1","1","1","0","0","1","2","1","1","1","1","1","1","1","0","1","0","1","2","1","0","1","3","3","1","1","1","2","2","2","1","2","3","1","3","3","3","3","1","3","596.2999999523163","","w","","true","0","10","down","up","1","w","1","0","1659035051988","","","true","60","10","0.13333333333333333","0.25","false"
"","html-keyboard-response","105","475692","0.0-6.0-1.11-0.11","018","20","F","1659034576516","q","q","Only if I get the answer right","You win money","A fixed time limit","5","female","No","no","1","0","0","0","0","1","1","2","1","0","0","1","0","0","0","0","0","1","1","0","0","0","3","1","1","1","0","0","1","2","1","1","1","1","1","1","1","0","1","0","1","2","1","0","1","3","3","1","1","1","2","2","2","1","2","3","1","3","3","3","3","1","3","540.3000000119209","<br><br><br><br><table><tr><td><img src=static/images/oddball_up.png></td><td><img src=static/images/oddball_down.png></td><td><img src=static/images/oddball_down.png></td></tr></table>","81","1","","","","","","","","","","","","","","","","","",""
"","html-keyboard-response","106","475694","0.0-6.0-1.11-1.11","018","20","F","1659034576516","q","q","Only if I get the answer right","You win money","A fixed time limit","5","female","No","no","1","0","0","0","0","1","1","2","1","0","0","1","0","0","0","0","0","1","1","0","0","0","3","1","1","1","0","0","1","2","1","1","1","1","1","1","1","0","1","0","1","2","1","0","1","3","3","1","1","1","2","2","2","1","2","3","1","3","3","3","3","1","3","540.3000000119209","","q","","true","0","11","down","up","0","q","1","0","1659035052532","","","true","60","11","0.15","0.25","false"
"","html-keyboard-response","107","476244","0.0-6.0-1.12-0.12","018","20","F","1659034576516","q","q","Only if I get the answer right","You win money","A fixed time limit","5","female","No","no","1","0","0","0","0","1","1","2","1","0","0","1","0","0","0","0","0","1","1","0","0","0","3","1","1","1","0","0","1","2","1","1","1","1","1","1","1","0","1","0","1","2","1","0","1","3","3","1","1","1","2","2","2","1","2","3","1","3","3","3","3","1","3","548.1999999880791","<br><br><br><br><table><tr><td><img src=static/images/oddball_up.png></td><td><img src=static/images/oddball_up.png></td><td><img src=static/images/oddball_down.png></td></tr></table>","69","1","","","","","","","","","","","","","","","","","",""
"","html-keyboard-response","108","476247","0.0-6.0-1.12-1.12","018","20","F","1659034576516","q","q","Only if I get the answer right","You win money","A fixed time limit","5","female","No","no","1","0","0","0","0","1","1","2","1","0","0","1","0","0","0","0","0","1","1","0","0","0","3","1","1","1","0","0","1","2","1","1","1","1","1","1","1","0","1","0","1","2","1","0","1","3","3","1","1","1","2","2","2","1","2","3","1","3","3","3","3","1","3","548.1999999880791","","e","","true","0","12","up","down","2","e","1","0","1659035053085","","","true","60","12","0.16666666666666666","0.25","false"
"","html-keyboard-response","109","476772","0.0-6.0-1.13-0.13","018","20","F","1659034576516","q","q","Only if I get the answer right","You win money","A fixed time limit","5","female","No","no","1","0","0","0","0","1","1","2","1","0","0","1","0","0","0","0","0","1","1","0","0","0","3","1","1","1","0","0","1","2","1","1","1","1","1","1","1","0","1","0","1","2","1","0","1","3","3","1","1","1","2","2","2","1","2","3","1","3","3","3","3","1","3","523.6999999880791","<br><br><br><br><table><tr><td><img src=static/images/oddball_down.png></td><td><img src=static/images/oddball_up.png></td><td><img src=static/images/oddball_down.png></td></tr></table>","87","1","","","","","","","","","","","","","","","","","",""
"","html-keyboard-response","110","476774","0.0-6.0-1.13-1.13","018","20","F","1659034576516","q","q","Only if I get the answer right","You win money","A fixed time limit","5","female","No","no","1","0","0","0","0","1","1","2","1","0","0","1","0","0","0","0","0","1","1","0","0","0","3","1","1","1","0","0","1","2","1","1","1","1","1","1","1","0","1","0","1","2","1","0","1","3","3","1","1","1","2","2","2","1","2","3","1","3","3","3","3","1","3","523.6999999880791","","w","","true","0","13","down","up","1","w","1","0","1659035053612","","","true","60","13","0.18333333333333332","0.25","false"
"","html-keyboard-response","111","477284","0.0-6.0-1.14-0.14","018","20","F","1659034576516","q","q","Only if I get the answer right","You win money","A fixed time limit","5","female","No","no","1","0","0","0","0","1","1","2","1","0","0","1","0","0","0","0","0","1","1","0","0","0","3","1","1","1","0","0","1","2","1","1","1","1","1","1","1","0","1","0","1","2","1","0","1","3","3","1","1","1","2","2","2","1","2","3","1","3","3","3","3","1","3","508.2999999523163","<br><br><br><br><table><tr><td><img src=static/images/oddball_down.png></td><td><img src=static/images/oddball_up.png></td><td><img src=static/images/oddball_down.png></td></tr></table>","87","1","","","","","","","","","","","","","","","","","",""
"","html-keyboard-response","112","477287","0.0-6.0-1.14-1.14","018","20","F","1659034576516","q","q","Only if I get the answer right","You win money","A fixed time limit","5","female","No","no","1","0","0","0","0","1","1","2","1","0","0","1","0","0","0","0","0","1","1","0","0","0","3","1","1","1","0","0","1","2","1","1","1","1","1","1","1","0","1","0","1","2","1","0","1","3","3","1","1","1","2","2","2","1","2","3","1","3","3","3","3","1","3","508.2999999523163","","w","","true","0","14","down","up","1","w","1","0","1659035054149","","","true","60","14","0.2","0.25","false"
"","html-keyboard-response","113","477916","0.0-6.0-1.15-0.15","018","20","F","1659034576516","q","q","Only if I get the answer right","You win money","A fixed time limit","5","female","No","no","1","0","0","0","0","1","1","2","1","0","0","1","0","0","0","0","0","1","1","0","0","0","3","1","1","1","0","0","1","2","1","1","1","1","1","1","1","0","1","0","1","2","1","0","1","3","3","1","1","1","2","2","2","1","2","3","1","3","3","3","3","1","3","603.6000000238419","<br><br><br><br><table><tr><td><img src=static/images/oddball_down.png></td><td><img src=static/images/oddball_up.png></td><td><img src=static/images/oddball_up.png></td></tr></table>","81","1","","","","","","","","","","","","","","","","","",""
"","html-keyboard-response","114","477918","0.0-6.0-1.15-1.15","018","20","F","1659034576516","q","q","Only if I get the answer right","You win money","A fixed time limit","5","female","No","no","1","0","0","0","0","1","1","2","1","0","0","1","0","0","0","0","0","1","1","0","0","0","3","1","1","1","0","0","1","2","1","1","1","1","1","1","1","0","1","0","1","2","1","0","1","3","3","1","1","1","2","2","2","1","2","3","1","3","3","3","3","1","3","603.6000000238419","","q","","true","0","15","up","down","0","q","1","0","1659035054756","","","true","60","15","0.21666666666666667","0.25","false"
"","html-keyboard-response","115","478395","0.0-6.0-1.16-0.16","018","20","F","1659034576516","q","q","Only if I get the answer right","You win money","A fixed time limit","5","female","No","no","1","0","0","0","0","1","1","2","1","0","0","1","0","0","0","0","0","1","1","0","0","0","3","1","1","1","0","0","1","2","1","1","1","1","1","1","1","0","1","0","1","2","1","0","1","3","3","1","1","1","2","2","2","1","2","3","1","3","3","3","3","1","3","476.7999999523163","<br><br><br><br><table><tr><td><img src=static/images/oddball_up.png></td><td><img src=static/images/oddball_up.png></td><td><img src=static/images/oddball_down.png></td></tr></table>","69","1","","","","","","","","","","","","","","","","","",""
"","html-keyboard-response","116","478398","0.0-6.0-1.16-1.16","018","20","F","1659034576516","q","q","Only if I get the answer right","You win money","A fixed time limit","5","female","No","no","1","0","0","0","0","1","1","2","1","0","0","1","0","0","0","0","0","1","1","0","0","0","3","1","1","1","0","0","1","2","1","1","1","1","1","1","1","0","1","0","1","2","1","0","1","3","3","1","1","1","2","2","2","1","2","3","1","3","3","3","3","1","3","476.7999999523163","","e","","true","0","16","up","down","2","e","1","0","1659035055236","","","true","60","16","0.23333333333333334","0.25","false"
"","html-keyboard-response","117","478956","0.0-6.0-1.17-0.17","018","20","F","1659034576516","q","q","Only if I get the answer right","You win money","A fixed time limit","5","female","No","no","1","0","0","0","0","1","1","2","1","0","0","1","0","0","0","0","0","1","1","0","0","0","3","1","1","1","0","0","1","2","1","1","1","1","1","1","1","0","1","0","1","2","1","0","1","3","3","1","1","1","2","2","2","1","2","3","1","3","3","3","3","1","3","556.5","<br><br><br><br><table><tr><td><img src=static/images/oddball_down.png></td><td><img src=static/images/oddball_up.png></td><td><img src=static/images/oddball_down.png></td></tr></table>","87","1","","","","","","","","","","","","","","","","","",""
"","html-keyboard-response","118","478958","0.0-6.0-1.17-1.17","018","20","F","1659034576516","q","q","Only if I get the answer right","You win money","A fixed time limit","5","female","No","no","1","0","0","0","0","1","1","2","1","0","0","1","0","0","0","0","0","1","1","0","0","0","3","1","1","1","0","0","1","2","1","1","1","1","1","1","1","0","1","0","1","2","1","0","1","3","3","1","1","1","2","2","2","1","2","3","1","3","3","3","3","1","3","556.5","","w","","true","0","17","down","up","1","w","1","0","1659035055796","","","true","60","17","0.25","0.25","false"
"","html-keyboard-response","119","479603","0.0-6.0-1.18-0.18","018","20","F","1659034576516","q","q","Only if I get the answer right","You win money","A fixed time limit","5","female","No","no","1","0","0","0","0","1","1","2","1","0","0","1","0","0","0","0","0","1","1","0","0","0","3","1","1","1","0","0","1","2","1","1","1","1","1","1","1","0","1","0","1","2","1","0","1","3","3","1","1","1","2","2","2","1","2","3","1","3","3","3","3","1","3","644.0999999642372","<br><br><br><br><table><tr><td><img src=static/images/oddball_down.png></td><td><img src=static/images/oddball_up.png></td><td><img src=static/images/oddball_up.png></td></tr></table>","81","1","","","","","","","","","","","","","","","","","",""
"","html-keyboard-response","120","479606","0.0-6.0-1.18-1.18","018","20","F","1659034576516","q","q","Only if I get the answer right","You win money","A fixed time limit","5","female","No","no","1","0","0","0","0","1","1","2","1","0","0","1","0","0","0","0","0","1","1","0","0","0","3","1","1","1","0","0","1","2","1","1","1","1","1","1","1","0","1","0","1","2","1","0","1","3","3","1","1","1","2","2","2","1","2","3","1","3","3","3","3","1","3","644.0999999642372","","q","","true","0","18","up","down","0","q","1","0","1659035056444","","","true","60","18","0.26666666666666666","0.25","false"
"","html-keyboard-response","121","480059","0.0-6.0-1.19-0.19","018","20","F","1659034576516","q","q","Only if I get the answer right","You win money","A fixed time limit","5","female","No","no","1","0","0","0","0","1","1","2","1","0","0","1","0","0","0","0","0","1","1","0","0","0","3","1","1","1","0","0","1","2","1","1","1","1","1","1","1","0","1","0","1","2","1","0","1","3","3","1","1","1","2","2","2","1","2","3","1","3","3","3","3","1","3","452.39999997615814","<br><br><br><br><table><tr><td><img src=static/images/oddball_up.png></td><td><img src=static/images/oddball_up.png></td><td><img src=static/images/oddball_down.png></td></tr></table>","69","1","","","","","","","","","","","","","","","","","",""
"","html-keyboard-response","122","480063","0.0-6.0-1.19-1.19","018","20","F","1659034576516","q","q","Only if I get the answer right","You win money","A fixed time limit","5","female","No","no","1","0","0","0","0","1","1","2","1","0","0","1","0","0","0","0","0","1","1","0","0","0","3","1","1","1","0","0","1","2","1","1","1","1","1","1","1","0","1","0","1","2","1","0","1","3","3","1","1","1","2","2","2","1","2","3","1","3","3","3","3","1","3","452.39999997615814","","e","","true","0","19","up","down","2","e","1","0","1659035056901","","","true","60","19","0.2833333333333333","0.25","false"
"","html-keyboard-response","123","480620","0.0-6.0-1.20-0.20","018","20","F","1659034576516","q","q","Only if I get the answer right","You win money","A fixed time limit","5","female","No","no","1","0","0","0","0","1","1","2","1","0","0","1","0","0","0","0","0","1","1","0","0","0","3","1","1","1","0","0","1","2","1","1","1","1","1","1","1","0","1","0","1","2","1","0","1","3","3","1","1","1","2","2","2","1","2","3","1","3","3","3","3","1","3","556.1000000238419","<br><br><br><br><table><tr><td><img src=static/images/oddball_down.png></td><td><img src=static/images/oddball_up.png></td><td><img src=static/images/oddball_down.png></td></tr></table>","81","1","","","","","","","","","","","","","","","","","",""
"","html-keyboard-response","124","480623","0.0-6.0-1.20-1.20","018","20","F","1659034576516","q","q","Only if I get the answer right","You win money","A fixed time limit","5","female","No","no","1","0","0","0","0","1","1","2","1","0","0","1","0","0","0","0","0","1","1","0","0","0","3","1","1","1","0","0","1","2","1","1","1","1","1","1","1","0","1","0","1","2","1","0","1","3","3","1","1","1","2","2","2","1","2","3","1","3","3","3","3","1","3","556.1000000238419","","q","","true","0","20","down","up","1","w","0","0","1659035057461","","","true","60","20","0.3","0.25","false"
"","html-keyboard-response","125","481376","0.0-6.0-1.21-0.21","018","20","F","1659034576516","q","q","Only if I get the answer right","You win money","A fixed time limit","5","female","No","no","1","0","0","0","0","1","1","2","1","0","0","1","0","0","0","0","0","1","1","0","0","0","3","1","1","1","0","0","1","2","1","1","1","1","1","1","1","0","1","0","1","2","1","0","1","3","3","1","1","1","2","2","2","1","2","3","1","3","3","3","3","1","3","null","<br><br><br><br><table><tr><td><img src=static/images/oddball_up.png></td><td><img src=static/images/oddball_up.png></td><td><img src=static/images/oddball_down.png></td></tr></table>","null","","","","","","","","","","","","","","","","","","",""
"","html-keyboard-response","126","481379","0.0-6.0-1.21-1.21","018","20","F","1659034576516","q","q","Only if I get the answer right","You win money","A fixed time limit","5","female","No","no","1","0","0","0","0","1","1","2","1","0","0","1","0","0","0","0","0","1","1","0","0","0","3","1","1","1","0","0","1","2","1","1","1","1","1","1","1","0","1","0","1","2","1","0","1","3","3","1","1","1","2","2","2","1","2","3","1","3","3","3","3","1","3","null","","null","","true","0","21","up","down","2","e","0","0","1659035058217","","","true","60","21","0.3","0.25","true"
"","html-keyboard-response","127","482035","0.0-6.0-1.22-0.22","018","20","F","1659034576516","q","q","Only if I get the answer right","You win money","A fixed time limit","5","female","No","no","1","0","0","0","0","1","1","2","1","0","0","1","0","0","0","0","0","1","1","0","0","0","3","1","1","1","0","0","1","2","1","1","1","1","1","1","1","0","1","0","1","2","1","0","1","3","3","1","1","1","2","2","2","1","2","3","1","3","3","3","3","1","3","655.1999999880791","<br><br><br><br><table><tr><td><img src=static/images/oddball_down.png></td><td><img src=static/images/oddball_up.png></td><td><img src=static/images/oddball_up.png></td></tr></table>","81","1","","","","","","","","","","","","","","","","","",""
"","html-keyboard-response","128","482038","0.0-6.0-1.22-1.22","018","20","F","1659034576516","q","q","Only if I get the answer right","You win money","A fixed time limit","5","female","No","no","1","0","0","0","0","1","1","2","1","0","0","1","0","0","0","0","0","1","1","0","0","0","3","1","1","1","0","0","1","2","1","1","1","1","1","1","1","0","1","0","1","2","1","0","1","3","3","1","1","1","2","2","2","1","2","3","1","3","3","3","3","1","3","655.1999999880791","","q","","true","0","22","up","down","0","q","1","0","1659035058876","","","true","60","22","0.3","0.25","false"
"","html-keyboard-response","129","482794","0.0-6.0-1.23-0.23","018","20","F","1659034576516","q","q","Only if I get the answer right","You win money","A fixed time limit","5","female","No","no","1","0","0","0","0","1","1","2","1","0","0","1","0","0","0","0","0","1","1","0","0","0","3","1","1","1","0","0","1","2","1","1","1","1","1","1","1","0","1","0","1","2","1","0","1","3","3","1","1","1","2","2","2","1","2","3","1","3","3","3","3","1","3","null","<br><br><br><br><table><tr><td><img src=static/images/oddball_down.png></td><td><img src=static/images/oddball_up.png></td><td><img src=static/images/oddball_down.png></td></tr></table>","null","","","","","","","","","","","","","","","","","","",""
"","html-keyboard-response","130","482797","0.0-6.0-1.23-1.23","018","20","F","1659034576516","q","q","Only if I get the answer right","You win money","A fixed time limit","5","female","No","no","1","0","0","0","0","1","1","2","1","0","0","1","0","0","0","0","0","1","1","0","0","0","3","1","1","1","0","0","1","2","1","1","1","1","1","1","1","0","1","0","1","2","1","0","1","3","3","1","1","1","2","2","2","1","2","3","1","3","3","3","3","1","3","null","","null","","true","0","23","down","up","1","w","0","0","1659035059635","","","true","60","23","0.31666666666666665","0.25","true"
"","html-keyboard-response","131","482859","0.0-6.0-1.24-0.24","018","20","F","1659034576516","q","q","Only if I get the answer right","You win money","A fixed time limit","5","female","No","no","1","0","0","0","0","1","1","2","1","0","0","1","0","0","0","0","0","1","1","0","0","0","3","1","1","1","0","0","1","2","1","1","1","1","1","1","1","0","1","0","1","2","1","0","1","3","3","1","1","1","2","2","2","1","2","3","1","3","3","3","3","1","3","61.39999997615814","<br><br><br><br><table><tr><td><img src=static/images/oddball_down.png></td><td><img src=static/images/oddball_down.png></td><td><img src=static/images/oddball_up.png></td></tr></table>","87","1","","","","","","","","","","","","","","","","","",""
"","html-keyboard-response","132","482862","0.0-6.0-1.24-1.24","018","20","F","1659034576516","q","q","Only if I get the answer right","You win money","A fixed time limit","5","female","No","no","1","0","0","0","0","1","1","2","1","0","0","1","0","0","0","0","0","1","1","0","0","0","3","1","1","1","0","0","1","2","1","1","1","1","1","1","1","0","1","0","1","2","1","0","1","3","3","1","1","1","2","2","2","1","2","3","1","3","3","3","3","1","3","61.39999997615814","","w","","true","0","24","down","up","2","e","0","0","1659035059700","","","true","60","24","0.31666666666666665","0.25","false"
"","html-keyboard-response","133","483451","0.0-6.0-1.25-0.25","018","20","F","1659034576516","q","q","Only if I get the answer right","You win money","A fixed time limit","5","female","No","no","1","0","0","0","0","1","1","2","1","0","0","1","0","0","0","0","0","1","1","0","0","0","3","1","1","1","0","0","1","2","1","1","1","1","1","1","1","0","1","0","1","2","1","0","1","3","3","1","1","1","2","2","2","1","2","3","1","3","3","3","3","1","3","588.6999999880791","<br><br><br><br><table><tr><td><img src=static/images/oddball_down.png></td><td><img src=static/images/oddball_down.png></td><td><img src=static/images/oddball_up.png></td></tr></table>","69","1","","","","","","","","","","","","","","","","","",""
"","html-keyboard-response","134","483454","0.0-6.0-1.25-1.25","018","20","F","1659034576516","q","q","Only if I get the answer right","You win money","A fixed time limit","5","female","No","no","1","0","0","0","0","1","1","2","1","0","0","1","0","0","0","0","0","1","1","0","0","0","3","1","1","1","0","0","1","2","1","1","1","1","1","1","1","0","1","0","1","2","1","0","1","3","3","1","1","1","2","2","2","1","2","3","1","3","3","3","3","1","3","588.6999999880791","","e","","true","0","25","down","up","2","e","1","0","1659035060292","","","true","60","25","0.31666666666666665","0.25","false"
"","html-keyboard-response","135","484027","0.0-6.0-1.26-0.26","018","20","F","1659034576516","q","q","Only if I get the answer right","You win money","A fixed time limit","5","female","No","no","1","0","0","0","0","1","1","2","1","0","0","1","0","0","0","0","0","1","1","0","0","0","3","1","1","1","0","0","1","2","1","1","1","1","1","1","1","0","1","0","1","2","1","0","1","3","3","1","1","1","2","2","2","1","2","3","1","3","3","3","3","1","3","572.1000000238419","<br><br><br><br><table><tr><td><img src=static/images/oddball_up.png></td><td><img src=static/images/oddball_up.png></td><td><img src=static/images/oddball_down.png></td></tr></table>","69","1","","","","","","","","","","","","","","","","","",""
"","html-keyboard-response","136","484030","0.0-6.0-1.26-1.26","018","20","F","1659034576516","q","q","Only if I get the answer right","You win money","A fixed time limit","5","female","No","no","1","0","0","0","0","1","1","2","1","0","0","1","0","0","0","0","0","1","1","0","0","0","3","1","1","1","0","0","1","2","1","1","1","1","1","1","1","0","1","0","1","2","1","0","1","3","3","1","1","1","2","2","2","1","2","3","1","3","3","3","3","1","3","572.1000000238419","","e","","true","0","26","up","down","2","e","1","0","1659035060868","","","true","60","26","0.3333333333333333","0.25","false"
"","html-keyboard-response","137","484692","0.0-6.0-1.27-0.27","018","20","F","1659034576516","q","q","Only if I get the answer right","You win money","A fixed time limit","5","female","No","no","1","0","0","0","0","1","1","2","1","0","0","1","0","0","0","0","0","1","1","0","0","0","3","1","1","1","0","0","1","2","1","1","1","1","1","1","1","0","1","0","1","2","1","0","1","3","3","1","1","1","2","2","2","1","2","3","1","3","3","3","3","1","3","661.1000000238419","<br><br><br><br><table><tr><td><img src=static/images/oddball_down.png></td><td><img src=static/images/oddball_up.png></td><td><img src=static/images/oddball_down.png></td></tr></table>","87","1","","","","","","","","","","","","","","","","","",""
"","html-keyboard-response","138","484694","0.0-6.0-1.27-1.27","018","20","F","1659034576516","q","q","Only if I get the answer right","You win money","A fixed time limit","5","female","No","no","1","0","0","0","0","1","1","2","1","0","0","1","0","0","0","0","0","1","1","0","0","0","3","1","1","1","0","0","1","2","1","1","1","1","1","1","1","0","1","0","1","2","1","0","1","3","3","1","1","1","2","2","2","1","2","3","1","3","3","3","3","1","3","661.1000000238419","","w","","true","0","27","down","up","1","w","1","0","1659035061532","","","true","60","27","0.35","0.25","false"
"","html-keyboard-response","139","485283","0.0-6.0-1.28-0.28","018","20","F","1659034576516","q","q","Only if I get the answer right","You win money","A fixed time limit","5","female","No","no","1","0","0","0","0","1","1","2","1","0","0","1","0","0","0","0","0","1","1","0","0","0","3","1","1","1","0","0","1","2","1","1","1","1","1","1","1","0","1","0","1","2","1","0","1","3","3","1","1","1","2","2","2","1","2","3","1","3","3","3","3","1","3","588.3000000119209","<br><br><br><br><table><tr><td><img src=static/images/oddball_up.png></td><td><img src=static/images/oddball_up.png></td><td><img src=static/images/oddball_down.png></td></tr></table>","69","1","","","","","","","","","","","","","","","","","",""
"","html-keyboard-response","140","485285","0.0-6.0-1.28-1.28","018","20","F","1659034576516","q","q","Only if I get the answer right","You win money","A fixed time limit","5","female","No","no","1","0","0","0","0","1","1","2","1","0","0","1","0","0","0","0","0","1","1","0","0","0","3","1","1","1","0","0","1","2","1","1","1","1","1","1","1","0","1","0","1","2","1","0","1","3","3","1","1","1","2","2","2","1","2","3","1","3","3","3","3","1","3","588.3000000119209","","e","","true","0","28","up","down","2","e","1","0","1659035062123","","","true","60","28","0.36666666666666664","0.25","false"
"","html-keyboard-response","141","485819","0.0-6.0-1.29-0.29","018","20","F","1659034576516","q","q","Only if I get the answer right","You win money","A fixed time limit","5","female","No","no","1","0","0","0","0","1","1","2","1","0","0","1","0","0","0","0","0","1","1","0","0","0","3","1","1","1","0","0","1","2","1","1","1","1","1","1","1","0","1","0","1","2","1","0","1","3","3","1","1","1","2","2","2","1","2","3","1","3","3","3","3","1","3","532.3999999761581","<br><br><br><br><table><tr><td><img src=static/images/oddball_down.png></td><td><img src=static/images/oddball_up.png></td><td><img src=static/images/oddball_down.png></td></tr></table>","81","1","","","","","","","","","","","","","","","","","",""
"","html-keyboard-response","142","485822","0.0-6.0-1.29-1.29","018","20","F","1659034576516","q","q","Only if I get the answer right","You win money","A fixed time limit","5","female","No","no","1","0","0","0","0","1","1","2","1","0","0","1","0","0","0","0","0","1","1","0","0","0","3","1","1","1","0","0","1","2","1","1","1","1","1","1","1","0","1","0","1","2","1","0","1","3","3","1","1","1","2","2","2","1","2","3","1","3","3","3","3","1","3","532.3999999761581","","q","","true","0","29","down","up","1","w","0","0","1659035062660","","","true","60","29","0.38333333333333336","0.25","false"
"","html-keyboard-response","143","486451","0.0-6.0-1.30-0.30","018","20","F","1659034576516","q","q","Only if I get the answer right","You win money","A fixed time limit","5","female","No","no","1","0","0","0","0","1","1","2","1","0","0","1","0","0","0","0","0","1","1","0","0","0","3","1","1","1","0","0","1","2","1","1","1","1","1","1","1","0","1","0","1","2","1","0","1","3","3","1","1","1","2","2","2","1","2","3","1","3","3","3","3","1","3","628.5999999642372","<br><br><br><br><table><tr><td><img src=static/images/oddball_down.png></td><td><img src=static/images/oddball_up.png></td><td><img src=static/images/oddball_up.png></td></tr></table>","81","1","","","","","","","","","","","","","","","","","",""
"","html-keyboard-response","144","486455","0.0-6.0-1.30-1.30","018","20","F","1659034576516","q","q","Only if I get the answer right","You win money","A fixed time limit","5","female","No","no","1","0","0","0","0","1","1","2","1","0","0","1","0","0","0","0","0","1","1","0","0","0","3","1","1","1","0","0","1","2","1","1","1","1","1","1","1","0","1","0","1","2","1","0","1","3","3","1","1","1","2","2","2","1","2","3","1","3","3","3","3","1","3","628.5999999642372","","q","","true","0","30","up","down","0","q","1","0","1659035063293","","","true","60","30","0.38333333333333336","0.25","false"
"","html-keyboard-response","145","487219","0.0-6.0-1.31-0.31","018","20","F","1659034576516","q","q","Only if I get the answer right","You win money","A fixed time limit","5","female","No","no","1","0","0","0","0","1","1","2","1","0","0","1","0","0","0","0","0","1","1","0","0","0","3","1","1","1","0","0","1","2","1","1","1","1","1","1","1","0","1","0","1","2","1","0","1","3","3","1","1","1","2","2","2","1","2","3","1","3","3","3","3","1","3","null","<br><br><br><br><table><tr><td><img src=static/images/oddball_down.png></td><td><img src=static/images/oddball_down.png></td><td><img src=static/images/oddball_up.png></td></tr></table>","null","","","","","","","","","","","","","","","","","","",""
"","html-keyboard-response","146","487221","0.0-6.0-1.31-1.31","018","20","F","1659034576516","q","q","Only if I get the answer right","You win money","A fixed time limit","5","female","No","no","1","0","0","0","0","1","1","2","1","0","0","1","0","0","0","0","0","1","1","0","0","0","3","1","1","1","0","0","1","2","1","1","1","1","1","1","1","0","1","0","1","2","1","0","1","3","3","1","1","1","2","2","2","1","2","3","1","3","3","3","3","1","3","null","","null","","true","0","31","down","up","2","e","0","0","1659035064059","","","true","60","31","0.4","0.25","true"
"","html-keyboard-response","147","487259","0.0-6.0-1.32-0.32","018","20","F","1659034576516","q","q","Only if I get the answer right","You win money","A fixed time limit","5","female","No","no","1","0","0","0","0","1","1","2","1","0","0","1","0","0","0","0","0","1","1","0","0","0","3","1","1","1","0","0","1","2","1","1","1","1","1","1","1","0","1","0","1","2","1","0","1","3","3","1","1","1","2","2","2","1","2","3","1","3","3","3","3","1","3","37.39999997615814","<br><br><br><br><table><tr><td><img src=static/images/oddball_down.png></td><td><img src=static/images/oddball_up.png></td><td><img src=static/images/oddball_up.png></td></tr></table>","69","1","","","","","","","","","","","","","","","","","",""
"","html-keyboard-response","148","487263","0.0-6.0-1.32-1.32","018","20","F","1659034576516","q","q","Only if I get the answer right","You win money","A fixed time limit","5","female","No","no","1","0","0","0","0","1","1","2","1","0","0","1","0","0","0","0","0","1","1","0","0","0","3","1","1","1","0","0","1","2","1","1","1","1","1","1","1","0","1","0","1","2","1","0","1","3","3","1","1","1","2","2","2","1","2","3","1","3","3","3","3","1","3","37.39999997615814","","e","","true","0","32","up","down","0","q","0","0","1659035064101","","","true","60","32","0.4","0.25","false"
"","html-keyboard-response","149","487907","0.0-6.0-1.33-0.33","018","20","F","1659034576516","q","q","Only if I get the answer right","You win money","A fixed time limit","5","female","No","no","1","0","0","0","0","1","1","2","1","0","0","1","0","0","0","0","0","1","1","0","0","0","3","1","1","1","0","0","1","2","1","1","1","1","1","1","1","0","1","0","1","2","1","0","1","3","3","1","1","1","2","2","2","1","2","3","1","3","3","3","3","1","3","644.1000000238419","<br><br><br><br><table><tr><td><img src=static/images/oddball_down.png></td><td><img src=static/images/oddball_down.png></td><td><img src=static/images/oddball_up.png></td></tr></table>","69","1","","","","","","","","","","","","","","","","","",""
"","html-keyboard-response","150","487909","0.0-6.0-1.33-1.33","018","20","F","1659034576516","q","q","Only if I get the answer right","You win money","A fixed time limit","5","female","No","no","1","0","0","0","0","1","1","2","1","0","0","1","0","0","0","0","0","1","1","0","0","0","3","1","1","1","0","0","1","2","1","1","1","1","1","1","1","0","1","0","1","2","1","0","1","3","3","1","1","1","2","2","2","1","2","3","1","3","3","3","3","1","3","644.1000000238419","","e","","true","0","33","down","up","2","e","1","0","1659035064747","","","true","60","33","0.4","0.25","false"
"","html-keyboard-response","151","488451","0.0-6.0-1.34-0.34","018","20","F","1659034576516","q","q","Only if I get the answer right","You win money","A fixed time limit","5","female","No","no","1","0","0","0","0","1","1","2","1","0","0","1","0","0","0","0","0","1","1","0","0","0","3","1","1","1","0","0","1","2","1","1","1","1","1","1","1","0","1","0","1","2","1","0","1","3","3","1","1","1","2","2","2","1","2","3","1","3","3","3","3","1","3","541.6999999880791","<br><br><br><br><table><tr><td><img src=static/images/oddball_up.png></td><td><img src=static/images/oddball_down.png></td><td><img src=static/images/oddball_down.png></td></tr></table>","81","1","","","","","","","","","","","","","","","","","",""
"","html-keyboard-response","152","488455","0.0-6.0-1.34-1.34","018","20","F","1659034576516","q","q","Only if I get the answer right","You win money","A fixed time limit","5","female","No","no","1","0","0","0","0","1","1","2","1","0","0","1","0","0","0","0","0","1","1","0","0","0","3","1","1","1","0","0","1","2","1","1","1","1","1","1","1","0","1","0","1","2","1","0","1","3","3","1","1","1","2","2","2","1","2","3","1","3","3","3","3","1","3","541.6999999880791","","q","","true","0","34","down","up","0","q","1","0","1659035065293","","","true","60","34","0.4166666666666667","0.25","false"
"","html-keyboard-response","153","489207","0.0-6.0-1.35-0.35","018","20","F","1659034576516","q","q","Only if I get the answer right","You win money","A fixed time limit","5","female","No","no","1","0","0","0","0","1","1","2","1","0","0","1","0","0","0","0","0","1","1","0","0","0","3","1","1","1","0","0","1","2","1","1","1","1","1","1","1","0","1","0","1","2","1","0","1","3","3","1","1","1","2","2","2","1","2","3","1","3","3","3","3","1","3","null","<br><br><br><br><table><tr><td><img src=static/images/oddball_up.png></td><td><img src=static/images/oddball_down.png></td><td><img src=static/images/oddball_up.png></td></tr></table>","null","","","","","","","","","","","","","","","","","","",""
"","html-keyboard-response","154","489209","0.0-6.0-1.35-1.35","018","20","F","1659034576516","q","q","Only if I get the answer right","You win money","A fixed time limit","5","female","No","no","1","0","0","0","0","1","1","2","1","0","0","1","0","0","0","0","0","1","1","0","0","0","3","1","1","1","0","0","1","2","1","1","1","1","1","1","1","0","1","0","1","2","1","0","1","3","3","1","1","1","2","2","2","1","2","3","1","3","3","3","3","1","3","null","","null","","true","0","35","up","down","1","w","0","0","1659035066047","","","true","60","35","0.43333333333333335","0.25","true"
"","html-keyboard-response","155","489243","0.0-6.0-1.36-0.36","018","20","F","1659034576516","q","q","Only if I get the answer right","You win money","A fixed time limit","5","female","No","no","1","0","0","0","0","1","1","2","1","0","0","1","0","0","0","0","0","1","1","0","0","0","3","1","1","1","0","0","1","2","1","1","1","1","1","1","1","0","1","0","1","2","1","0","1","3","3","1","1","1","2","2","2","1","2","3","1","3","3","3","3","1","3","32.89999997615814","<br><br><br><br><table><tr><td><img src=static/images/oddball_up.png></td><td><img src=static/images/oddball_down.png></td><td><img src=static/images/oddball_up.png></td></tr></table>","87","1","","","","","","","","","","","","","","","","","",""
"","html-keyboard-response","156","489245","0.0-6.0-1.36-1.36","018","20","F","1659034576516","q","q","Only if I get the answer right","You win money","A fixed time limit","5","female","No","no","1","0","0","0","0","1","1","2","1","0","0","1","0","0","0","0","0","1","1","0","0","0","3","1","1","1","0","0","1","2","1","1","1","1","1","1","1","0","1","0","1","2","1","0","1","3","3","1","1","1","2","2","2","1","2","3","1","3","3","3","3","1","3","32.89999997615814","","w","","true","0","36","up","down","1","w","1","0","1659035066083","","","true","60","36","0.43333333333333335","0.25","false"
"","html-keyboard-response","157","489795","0.0-6.0-1.37-0.37","018","20","F","1659034576516","q","q","Only if I get the answer right","You win money","A fixed time limit","5","female","No","no","1","0","0","0","0","1","1","2","1","0","0","1","0","0","0","0","0","1","1","0","0","0","3","1","1","1","0","0","1","2","1","1","1","1","1","1","1","0","1","0","1","2","1","0","1","3","3","1","1","1","2","2","2","1","2","3","1","3","3","3","3","1","3","549.1000000238419","<br><br><br><br><table><tr><td><img src=static/images/oddball_up.png></td><td><img src=static/images/oddball_up.png></td><td><img src=static/images/oddball_down.png></td></tr></table>","69","1","","","","","","","","","","","","","","","","","",""
