"success","trial_type","trial_index","time_elapsed","internal_node_id","subject","age","sex","date","instQ1","instQ2","instQ3","instQ4","instQ5","totalInstQ","gender","strategy","comments","DASS1_s","DASS2_a","DASS3_d","DASS4_a","DASS5_d","DASS6_s","DASS7_a","DASS8_s","DASS9_a","DASS10_d","DASS11_s","DASS12_s","DASS13_d","DASS14_s","DASS15_a","DASS16_d","DASS17_d","DASS18_s","DASS19_a","DASS20_a","DASS21_d","BB1","BB2","BB3","BB4","BB5","BB6","BB7","BB8","BB9","BB10","BB11","BB12","BB13","BB14","BB15","BB16","BB17","BB18","BB19","BB20","BB21","BB22","BB23","BB24","NFC1","NFC2","NFC3","NFC4","NFC5","NFC6","NFC7","NFC8","NFC9","NFC10","NFC11","NFC12","NFC13","NFC14","NFC15","NFC16","NFC17","NFC18","rt","stimulus","key_press","npress","isDataTrial","block","trialinblock","common","odd","oddidx","correct_ans","accuracy","totalTokens","timestamp","responses","question_order","showprog","blocklen","trial","progress","reward","timedout"
"true","fullscreen","0","3072","0.0-0.0","025","21","f","1659373327867","q","q","Only if I get the answer right","You win money","As much time as I need","4","female","No","The speed is a bit too fast ","1","0","1","0","0","0","1","2","0","0","0","2","0","1","0","0","0","0","1","0","0","1","3","2","0","2","1","0","0","0","2","1","1","1","0","0","2","2","0","0","1","2","3","0","0","2","1","2","3","3","2","3","2","3","3","2","1","2","2","2","2","3","3","","","","","","","","","","","","","","","","","","","","","",""
"","image-keyboard-response","1","35899","0.0-1.0-0.0","025","21","f","1659373327867","q","q","Only if I get the answer right","You win money","As much time as I need","4","female","No","The speed is a bit too fast ","1","0","1","0","0","0","1","2","0","0","0","2","0","1","0","0","0","0","1","0","0","1","3","2","0","2","1","0","0","0","2","1","1","1","0","0","2","2","0","0","1","2","3","0","0","2","1","2","3","3","2","3","2","3","3","2","1","2","2","2","2","3","3","32825.39999997616","static/images/instructions/Slide1.png","39","","","","","","","","","","","","","","","","","","",""
"","image-keyboard-response","2","47258","0.0-1.1-0.1","025","21","f","1659373327867","q","q","Only if I get the answer right","You win money","As much time as I need","4","female","No","The speed is a bit too fast ","1","0","1","0","0","0","1","2","0","0","0","2","0","1","0","0","0","0","1","0","0","1","3","2","0","2","1","0","0","0","2","1","1","1","0","0","2","2","0","0","1","2","3","0","0","2","1","2","3","3","2","3","2","3","3","2","1","2","2","2","2","3","3","11358.300000071526","static/images/instructions/Slide2.png","39","","","","","","","","","","","","","","","","","","",""
"","image-keyboard-response","3","53634","0.0-1.2-0.2","025","21","f","1659373327867","q","q","Only if I get the answer right","You win money","As much time as I need","4","female","No","The speed is a bit too fast ","1","0","1","0","0","0","1","2","0","0","0","2","0","1","0","0","0","0","1","0","0","1","3","2","0","2","1","0","0","0","2","1","1","1","0","0","2","2","0","0","1","2","3","0","0","2","1","2","3","3","2","3","2","3","3","2","1","2","2","2","2","3","3","6375.299999952316","static/images/instructions/Slide3.png","39","","","","","","","","","","","","","","","","","","",""
"","image-keyboard-response","4","56434","0.0-1.3-0.3","025","21","f","1659373327867","q","q","Only if I get the answer right","You win money","As much time as I need","4","female","No","The speed is a bit too fast ","1","0","1","0","0","0","1","2","0","0","0","2","0","1","0","0","0","0","1","0","0","1","3","2","0","2","1","0","0","0","2","1","1","1","0","0","2","2","0","0","1","2","3","0","0","2","1","2","3","3","2","3","2","3","3","2","1","2","2","2","2","3","3","2799.2000000476837","static/images/instructions/Slide4.png","39","","","","","","","","","","","","","","","","","","",""
"","image-keyboard-response","5","63967","0.0-1.4-0.4","025","21","f","1659373327867","q","q","Only if I get the answer right","You win money","As much time as I need","4","female","No","The speed is a bit too fast ","1","0","1","0","0","0","1","2","0","0","0","2","0","1","0","0","0","0","1","0","0","1","3","2","0","2","1","0","0","0","2","1","1","1","0","0","2","2","0","0","1","2","3","0","0","2","1","2","3","3","2","3","2","3","3","2","1","2","2","2","2","3","3","7543.299999952316","static/images/instructions/Slide5.png","39","","","","","","","","","","","","","","","","","","",""
"","image-keyboard-response","6","67127","0.0-1.5-0.5","025","21","f","1659373327867","q","q","Only if I get the answer right","You win money","As much time as I need","4","female","No","The speed is a bit too fast ","1","0","1","0","0","0","1","2","0","0","0","2","0","1","0","0","0","0","1","0","0","1","3","2","0","2","1","0","0","0","2","1","1","1","0","0","2","2","0","0","1","2","3","0","0","2","1","2","3","3","2","3","2","3","3","2","1","2","2","2","2","3","3","3159.2000000476837","static/images/instructions/Slide6.png","39","","","","","","","","","","","","","","","","","","",""
"","image-keyboard-response","7","77607","0.0-1.6-0.6","025","21","f","1659373327867","q","q","Only if I get the answer right","You win money","As much time as I need","4","female","No","The speed is a bit too fast ","1","0","1","0","0","0","1","2","0","0","0","2","0","1","0","0","0","0","1","0","0","1","3","2","0","2","1","0","0","0","2","1","1","1","0","0","2","2","0","0","1","2","3","0","0","2","1","2","3","3","2","3","2","3","3","2","1","2","2","2","2","3","3","10479.5","static/images/instructions/Slide7.png","39","","","","","","","","","","","","","","","","","","",""
"","html-keyboard-response","8","78536","0.0-2.0-0.0","025","21","f","1659373327867","q","q","Only if I get the answer right","You win money","As much time as I need","4","female","No","The speed is a bit too fast ","1","0","1","0","0","0","1","2","0","0","0","2","0","1","0","0","0","0","1","0","0","1","3","2","0","2","1","0","0","0","2","1","1","1","0","0","2","2","0","0","1","2","3","0","0","2","1","2","3","3","2","3","2","3","3","2","1","2","2","2","2","3","3","911.3999999761581","<br><br><br><br><table><tr><td><img src=static/images/oddball_up.png></td><td><img src=static/images/oddball_down.png></td><td><img src=static/images/oddball_up.png></td></tr></table>","87","1","","","","","","","","","","","","","","","","","",""
"","html-keyboard-response","9","81049","0.0-2.0-1.0","025","21","f","1659373327867","q","q","Only if I get the answer right","You win money","As much time as I need","4","female","No","The speed is a bit too fast ","1","0","1","0","0","0","1","2","0","0","0","2","0","1","0","0","0","0","1","0","0","1","3","2","0","2","1","0","0","0","2","1","1","1","0","0","2","2","0","0","1","2","3","0","0","2","1","2","3","3","2","3","2","3","3","2","1","2","2","2","2","3","3","null","<div style=""font-size:75px;""><b>Correct</b></div>","null","","","","","","","","","","","","","","","","","","",""
"","html-keyboard-response","10","82054","0.0-2.0-2.0","025","21","f","1659373327867","q","q","Only if I get the answer right","You win money","As much time as I need","4","female","No","The speed is a bit too fast ","1","0","1","0","0","0","1","2","0","0","0","2","0","1","0","0","0","0","1","0","0","1","3","2","0","2","1","0","0","0","2","1","1","1","0","0","2","2","0","0","1","2","3","0","0","2","1","2","3","3","2","3","2","3","3","2","1","2","2","2","2","3","3","911.3999999761581","","w","","true","practice","0","up","down","1","w","1","0","1659373410366","","","","","","","",""
"","html-keyboard-response","11","82599","0.0-2.1-0.1","025","21","f","1659373327867","q","q","Only if I get the answer right","You win money","As much time as I need","4","female","No","The speed is a bit too fast ","1","0","1","0","0","0","1","2","0","0","0","2","0","1","0","0","0","0","1","0","0","1","3","2","0","2","1","0","0","0","2","1","1","1","0","0","2","2","0","0","1","2","3","0","0","2","1","2","3","3","2","3","2","3","3","2","1","2","2","2","2","3","3","543.6000000238419","<br><br><br><br><table><tr><td><img src=static/images/oddball_down.png></td><td><img src=static/images/oddball_up.png></td><td><img src=static/images/oddball_up.png></td></tr></table>","81","1","","","","","","","","","","","","","","","","","",""
"","html-keyboard-response","12","85105","0.0-2.1-1.1","025","21","f","1659373327867","q","q","Only if I get the answer right","You win money","As much time as I need","4","female","No","The speed is a bit too fast ","1","0","1","0","0","0","1","2","0","0","0","2","0","1","0","0","0","0","1","0","0","1","3","2","0","2","1","0","0","0","2","1","1","1","0","0","2","2","0","0","1","2","3","0","0","2","1","2","3","3","2","3","2","3","3","2","1","2","2","2","2","3","3","null","<div style=""font-size:75px;""><b>Correct</b></div>","null","","","","","","","","","","","","","","","","","","",""
"","html-keyboard-response","13","86111","0.0-2.1-2.1","025","21","f","1659373327867","q","q","Only if I get the answer right","You win money","As much time as I need","4","female","No","The speed is a bit too fast ","1","0","1","0","0","0","1","2","0","0","0","2","0","1","0","0","0","0","1","0","0","1","3","2","0","2","1","0","0","0","2","1","1","1","0","0","2","2","0","0","1","2","3","0","0","2","1","2","3","3","2","3","2","3","3","2","1","2","2","2","2","3","3","543.6000000238419","","q","","true","practice","1","up","down","0","q","1","0","1659373414423","","","","","","","",""
"","html-keyboard-response","14","86639","0.0-2.2-0.2","025","21","f","1659373327867","q","q","Only if I get the answer right","You win money","As much time as I need","4","female","No","The speed is a bit too fast ","1","0","1","0","0","0","1","2","0","0","0","2","0","1","0","0","0","0","1","0","0","1","3","2","0","2","1","0","0","0","2","1","1","1","0","0","2","2","0","0","1","2","3","0","0","2","1","2","3","3","2","3","2","3","3","2","1","2","2","2","2","3","3","526.6000000238419","<br><br><br><br><table><tr><td><img src=static/images/oddball_down.png></td><td><img src=static/images/oddball_up.png></td><td><img src=static/images/oddball_up.png></td></tr></table>","81","1","","","","","","","","","","","","","","","","","",""
"","html-keyboard-response","15","89145","0.0-2.2-1.2","025","21","f","1659373327867","q","q","Only if I get the answer right","You win money","As much time as I need","4","female","No","The speed is a bit too fast ","1","0","1","0","0","0","1","2","0","0","0","2","0","1","0","0","0","0","1","0","0","1","3","2","0","2","1","0","0","0","2","1","1","1","0","0","2","2","0","0","1","2","3","0","0","2","1","2","3","3","2","3","2","3","3","2","1","2","2","2","2","3","3","null","<div style=""font-size:75px;""><b>Correct</b></div>","null","","","","","","","","","","","","","","","","","","",""
"","html-keyboard-response","16","90151","0.0-2.2-2.2","025","21","f","1659373327867","q","q","Only if I get the answer right","You win money","As much time as I need","4","female","No","The speed is a bit too fast ","1","0","1","0","0","0","1","2","0","0","0","2","0","1","0","0","0","0","1","0","0","1","3","2","0","2","1","0","0","0","2","1","1","1","0","0","2","2","0","0","1","2","3","0","0","2","1","2","3","3","2","3","2","3","3","2","1","2","2","2","2","3","3","526.6000000238419","","q","","true","practice","2","up","down","0","q","1","0","1659373418463","","","","","","","",""
"","html-keyboard-response","17","90711","0.0-2.3-0.3","025","21","f","1659373327867","q","q","Only if I get the answer right","You win money","As much time as I need","4","female","No","The speed is a bit too fast ","1","0","1","0","0","0","1","2","0","0","0","2","0","1","0","0","0","0","1","0","0","1","3","2","0","2","1","0","0","0","2","1","1","1","0","0","2","2","0","0","1","2","3","0","0","2","1","2","3","3","2","3","2","3","3","2","1","2","2","2","2","3","3","559.3999999761581","<br><br><br><br><table><tr><td><img src=static/images/oddball_down.png></td><td><img src=static/images/oddball_down.png></td><td><img src=static/images/oddball_up.png></td></tr></table>","69","1","","","","","","","","","","","","","","","","","",""
"","html-keyboard-response","18","93219","0.0-2.3-1.3","025","21","f","1659373327867","q","q","Only if I get the answer right","You win money","As much time as I need","4","female","No","The speed is a bit too fast ","1","0","1","0","0","0","1","2","0","0","0","2","0","1","0","0","0","0","1","0","0","1","3","2","0","2","1","0","0","0","2","1","1","1","0","0","2","2","0","0","1","2","3","0","0","2","1","2","3","3","2","3","2","3","3","2","1","2","2","2","2","3","3","null","<div style=""font-size:75px;""><b>Correct</b></div>","null","","","","","","","","","","","","","","","","","","",""
"","html-keyboard-response","19","94226","0.0-2.3-2.3","025","21","f","1659373327867","q","q","Only if I get the answer right","You win money","As much time as I need","4","female","No","The speed is a bit too fast ","1","0","1","0","0","0","1","2","0","0","0","2","0","1","0","0","0","0","1","0","0","1","3","2","0","2","1","0","0","0","2","1","1","1","0","0","2","2","0","0","1","2","3","0","0","2","1","2","3","3","2","3","2","3","3","2","1","2","2","2","2","3","3","559.3999999761581","","e","","true","practice","3","down","up","2","e","1","0","1659373422538","","","","","","","",""
"","html-keyboard-response","20","94735","0.0-2.4-0.4","025","21","f","1659373327867","q","q","Only if I get the answer right","You win money","As much time as I need","4","female","No","The speed is a bit too fast ","1","0","1","0","0","0","1","2","0","0","0","2","0","1","0","0","0","0","1","0","0","1","3","2","0","2","1","0","0","0","2","1","1","1","0","0","2","2","0","0","1","2","3","0","0","2","1","2","3","3","2","3","2","3","3","2","1","2","2","2","2","3","3","507.7000000476837","<br><br><br><br><table><tr><td><img src=static/images/oddball_down.png></td><td><img src=static/images/oddball_up.png></td><td><img src=static/images/oddball_down.png></td></tr></table>","87","1","","","","","","","","","","","","","","","","","",""
"","html-keyboard-response","21","97245","0.0-2.4-1.4","025","21","f","1659373327867","q","q","Only if I get the answer right","You win money","As much time as I need","4","female","No","The speed is a bit too fast ","1","0","1","0","0","0","1","2","0","0","0","2","0","1","0","0","0","0","1","0","0","1","3","2","0","2","1","0","0","0","2","1","1","1","0","0","2","2","0","0","1","2","3","0","0","2","1","2","3","3","2","3","2","3","3","2","1","2","2","2","2","3","3","null","<div style=""font-size:75px;""><b>Correct</b></div>","null","","","","","","","","","","","","","","","","","","",""
"","html-keyboard-response","22","98251","0.0-2.4-2.4","025","21","f","1659373327867","q","q","Only if I get the answer right","You win money","As much time as I need","4","female","No","The speed is a bit too fast ","1","0","1","0","0","0","1","2","0","0","0","2","0","1","0","0","0","0","1","0","0","1","3","2","0","2","1","0","0","0","2","1","1","1","0","0","2","2","0","0","1","2","3","0","0","2","1","2","3","3","2","3","2","3","3","2","1","2","2","2","2","3","3","507.7000000476837","","w","","true","practice","4","down","up","1","w","1","0","1659373426563","","","","","","","",""
"","html-keyboard-response","23","98759","0.0-2.5-0.5","025","21","f","1659373327867","q","q","Only if I get the answer right","You win money","As much time as I need","4","female","No","The speed is a bit too fast ","1","0","1","0","0","0","1","2","0","0","0","2","0","1","0","0","0","0","1","0","0","1","3","2","0","2","1","0","0","0","2","1","1","1","0","0","2","2","0","0","1","2","3","0","0","2","1","2","3","3","2","3","2","3","3","2","1","2","2","2","2","3","3","506.7999999523163","<br><br><br><br><table><tr><td><img src=static/images/oddball_down.png></td><td><img src=static/images/oddball_down.png></td><td><img src=static/images/oddball_up.png></td></tr></table>","69","1","","","","","","","","","","","","","","","","","",""
"","html-keyboard-response","24","101268","0.0-2.5-1.5","025","21","f","1659373327867","q","q","Only if I get the answer right","You win money","As much time as I need","4","female","No","The speed is a bit too fast ","1","0","1","0","0","0","1","2","0","0","0","2","0","1","0","0","0","0","1","0","0","1","3","2","0","2","1","0","0","0","2","1","1","1","0","0","2","2","0","0","1","2","3","0","0","2","1","2","3","3","2","3","2","3","3","2","1","2","2","2","2","3","3","null","<div style=""font-size:75px;""><b>Correct</b></div>","null","","","","","","","","","","","","","","","","","","",""
"","html-keyboard-response","25","102279","0.0-2.5-2.5","025","21","f","1659373327867","q","q","Only if I get the answer right","You win money","As much time as I need","4","female","No","The speed is a bit too fast ","1","0","1","0","0","0","1","2","0","0","0","2","0","1","0","0","0","0","1","0","0","1","3","2","0","2","1","0","0","0","2","1","1","1","0","0","2","2","0","0","1","2","3","0","0","2","1","2","3","3","2","3","2","3","3","2","1","2","2","2","2","3","3","506.7999999523163","","e","","true","practice","5","down","up","2","e","1","0","1659373430591","","","","","","","",""
"","html-keyboard-response","26","102839","0.0-2.6-0.6","025","21","f","1659373327867","q","q","Only if I get the answer right","You win money","As much time as I need","4","female","No","The speed is a bit too fast ","1","0","1","0","0","0","1","2","0","0","0","2","0","1","0","0","0","0","1","0","0","1","3","2","0","2","1","0","0","0","2","1","1","1","0","0","2","2","0","0","1","2","3","0","0","2","1","2","3","3","2","3","2","3","3","2","1","2","2","2","2","3","3","559.3999999761581","<br><br><br><br><table><tr><td><img src=static/images/oddball_up.png></td><td><img src=static/images/oddball_down.png></td><td><img src=static/images/oddball_down.png></td></tr></table>","81","1","","","","","","","","","","","","","","","","","",""
"","html-keyboard-response","27","105345","0.0-2.6-1.6","025","21","f","1659373327867","q","q","Only if I get the answer right","You win money","As much time as I need","4","female","No","The speed is a bit too fast ","1","0","1","0","0","0","1","2","0","0","0","2","0","1","0","0","0","0","1","0","0","1","3","2","0","2","1","0","0","0","2","1","1","1","0","0","2","2","0","0","1","2","3","0","0","2","1","2","3","3","2","3","2","3","3","2","1","2","2","2","2","3","3","null","<div style=""font-size:75px;""><b>Correct</b></div>","null","","","","","","","","","","","","","","","","","","",""
"","html-keyboard-response","28","106351","0.0-2.6-2.6","025","21","f","1659373327867","q","q","Only if I get the answer right","You win money","As much time as I need","4","female","No","The speed is a bit too fast ","1","0","1","0","0","0","1","2","0","0","0","2","0","1","0","0","0","0","1","0","0","1","3","2","0","2","1","0","0","0","2","1","1","1","0","0","2","2","0","0","1","2","3","0","0","2","1","2","3","3","2","3","2","3","3","2","1","2","2","2","2","3","3","559.3999999761581","","q","","true","practice","6","down","up","0","q","1","0","1659373434663","","","","","","","",""
"","html-keyboard-response","29","106950","0.0-2.7-0.7","025","21","f","1659373327867","q","q","Only if I get the answer right","You win money","As much time as I need","4","female","No","The speed is a bit too fast ","1","0","1","0","0","0","1","2","0","0","0","2","0","1","0","0","0","0","1","0","0","1","3","2","0","2","1","0","0","0","2","1","1","1","0","0","2","2","0","0","1","2","3","0","0","2","1","2","3","3","2","3","2","3","3","2","1","2","2","2","2","3","3","598.8999999761581","<br><br><br><br><table><tr><td><img src=static/images/oddball_up.png></td><td><img src=static/images/oddball_up.png></td><td><img src=static/images/oddball_down.png></td></tr></table>","69","1","","","","","","","","","","","","","","","","","",""
"","html-keyboard-response","30","109452","0.0-2.7-1.7","025","21","f","1659373327867","q","q","Only if I get the answer right","You win money","As much time as I need","4","female","No","The speed is a bit too fast ","1","0","1","0","0","0","1","2","0","0","0","2","0","1","0","0","0","0","1","0","0","1","3","2","0","2","1","0","0","0","2","1","1","1","0","0","2","2","0","0","1","2","3","0","0","2","1","2","3","3","2","3","2","3","3","2","1","2","2","2","2","3","3","null","<div style=""font-size:75px;""><b>Correct</b></div>","null","","","","","","","","","","","","","","","","","","",""
"","html-keyboard-response","31","110459","0.0-2.7-2.7","025","21","f","1659373327867","q","q","Only if I get the answer right","You win money","As much time as I need","4","female","No","The speed is a bit too fast ","1","0","1","0","0","0","1","2","0","0","0","2","0","1","0","0","0","0","1","0","0","1","3","2","0","2","1","0","0","0","2","1","1","1","0","0","2","2","0","0","1","2","3","0","0","2","1","2","3","3","2","3","2","3","3","2","1","2","2","2","2","3","3","598.8999999761581","","e","","true","practice","7","up","down","2","e","1","0","1659373438771","","","","","","","",""
"","html-keyboard-response","32","110863","0.0-2.8-0.8","025","21","f","1659373327867","q","q","Only if I get the answer right","You win money","As much time as I need","4","female","No","The speed is a bit too fast ","1","0","1","0","0","0","1","2","0","0","0","2","0","1","0","0","0","0","1","0","0","1","3","2","0","2","1","0","0","0","2","1","1","1","0","0","2","2","0","0","1","2","3","0","0","2","1","2","3","3","2","3","2","3","3","2","1","2","2","2","2","3","3","402.7999999523163","<br><br><br><br><table><tr><td><img src=static/images/oddball_up.png></td><td><img src=static/images/oddball_down.png></td><td><img src=static/images/oddball_down.png></td></tr></table>","81","1","","","","","","","","","","","","","","","","","",""
"","html-keyboard-response","33","113374","0.0-2.8-1.8","025","21","f","1659373327867","q","q","Only if I get the answer right","You win money","As much time as I need","4","female","No","The speed is a bit too fast ","1","0","1","0","0","0","1","2","0","0","0","2","0","1","0","0","0","0","1","0","0","1","3","2","0","2","1","0","0","0","2","1","1","1","0","0","2","2","0","0","1","2","3","0","0","2","1","2","3","3","2","3","2","3","3","2","1","2","2","2","2","3","3","null","<div style=""font-size:75px;""><b>Correct</b></div>","null","","","","","","","","","","","","","","","","","","",""
"","html-keyboard-response","34","114380","0.0-2.8-2.8","025","21","f","1659373327867","q","q","Only if I get the answer right","You win money","As much time as I need","4","female","No","The speed is a bit too fast ","1","0","1","0","0","0","1","2","0","0","0","2","0","1","0","0","0","0","1","0","0","1","3","2","0","2","1","0","0","0","2","1","1","1","0","0","2","2","0","0","1","2","3","0","0","2","1","2","3","3","2","3","2","3","3","2","1","2","2","2","2","3","3","402.7999999523163","","q","","true","practice","8","down","up","0","q","1","0","1659373442692","","","","","","","",""
"","html-keyboard-response","35","114903","0.0-2.9-0.9","025","21","f","1659373327867","q","q","Only if I get the answer right","You win money","As much time as I need","4","female","No","The speed is a bit too fast ","1","0","1","0","0","0","1","2","0","0","0","2","0","1","0","0","0","0","1","0","0","1","3","2","0","2","1","0","0","0","2","1","1","1","0","0","2","2","0","0","1","2","3","0","0","2","1","2","3","3","2","3","2","3","3","2","1","2","2","2","2","3","3","522.2000000476837","<br><br><br><br><table><tr><td><img src=static/images/oddball_up.png></td><td><img src=static/images/oddball_down.png></td><td><img src=static/images/oddball_up.png></td></tr></table>","87","1","","","","","","","","","","","","","","","","","",""
"","html-keyboard-response","36","117415","0.0-2.9-1.9","025","21","f","1659373327867","q","q","Only if I get the answer right","You win money","As much time as I need","4","female","No","The speed is a bit too fast ","1","0","1","0","0","0","1","2","0","0","0","2","0","1","0","0","0","0","1","0","0","1","3","2","0","2","1","0","0","0","2","1","1","1","0","0","2","2","0","0","1","2","3","0","0","2","1","2","3","3","2","3","2","3","3","2","1","2","2","2","2","3","3","null","<div style=""font-size:75px;""><b>Correct</b></div>","null","","","","","","","","","","","","","","","","","","",""
"","html-keyboard-response","37","118422","0.0-2.9-2.9","025","21","f","1659373327867","q","q","Only if I get the answer right","You win money","As much time as I need","4","female","No","The speed is a bit too fast ","1","0","1","0","0","0","1","2","0","0","0","2","0","1","0","0","0","0","1","0","0","1","3","2","0","2","1","0","0","0","2","1","1","1","0","0","2","2","0","0","1","2","3","0","0","2","1","2","3","3","2","3","2","3","3","2","1","2","2","2","2","3","3","522.2000000476837","","w","","true","practice","9","up","down","1","w","1","0","1659373446734","","","","","","","",""
"","html-keyboard-response","38","118903","0.0-2.10-0.10","025","21","f","1659373327867","q","q","Only if I get the answer right","You win money","As much time as I need","4","female","No","The speed is a bit too fast ","1","0","1","0","0","0","1","2","0","0","0","2","0","1","0","0","0","0","1","0","0","1","3","2","0","2","1","0","0","0","2","1","1","1","0","0","2","2","0","0","1","2","3","0","0","2","1","2","3","3","2","3","2","3","3","2","1","2","2","2","2","3","3","480.39999997615814","<br><br><br><br><table><tr><td><img src=static/images/oddball_down.png></td><td><img src=static/images/oddball_up.png></td><td><img src=static/images/oddball_up.png></td></tr></table>","81","1","","","","","","","","","","","","","","","","","",""
"","html-keyboard-response","39","121408","0.0-2.10-1.10","025","21","f","1659373327867","q","q","Only if I get the answer right","You win money","As much time as I need","4","female","No","The speed is a bit too fast ","1","0","1","0","0","0","1","2","0","0","0","2","0","1","0","0","0","0","1","0","0","1","3","2","0","2","1","0","0","0","2","1","1","1","0","0","2","2","0","0","1","2","3","0","0","2","1","2","3","3","2","3","2","3","3","2","1","2","2","2","2","3","3","null","<div style=""font-size:75px;""><b>Correct</b></div>","null","","","","","","","","","","","","","","","","","","",""
"","html-keyboard-response","40","122414","0.0-2.10-2.10","025","21","f","1659373327867","q","q","Only if I get the answer right","You win money","As much time as I need","4","female","No","The speed is a bit too fast ","1","0","1","0","0","0","1","2","0","0","0","2","0","1","0","0","0","0","1","0","0","1","3","2","0","2","1","0","0","0","2","1","1","1","0","0","2","2","0","0","1","2","3","0","0","2","1","2","3","3","2","3","2","3","3","2","1","2","2","2","2","3","3","480.39999997615814","","q","","true","practice","10","up","down","0","q","1","0","1659373450726","","","","","","","",""
"","html-keyboard-response","41","122878","0.0-2.11-0.11","025","21","f","1659373327867","q","q","Only if I get the answer right","You win money","As much time as I need","4","female","No","The speed is a bit too fast ","1","0","1","0","0","0","1","2","0","0","0","2","0","1","0","0","0","0","1","0","0","1","3","2","0","2","1","0","0","0","2","1","1","1","0","0","2","2","0","0","1","2","3","0","0","2","1","2","3","3","2","3","2","3","3","2","1","2","2","2","2","3","3","464.2999999523163","<br><br><br><br><table><tr><td><img src=static/images/oddball_down.png></td><td><img src=static/images/oddball_up.png></td><td><img src=static/images/oddball_up.png></td></tr></table>","81","1","","","","","","","","","","","","","","","","","",""
"","html-keyboard-response","42","125392","0.0-2.11-1.11","025","21","f","1659373327867","q","q","Only if I get the answer right","You win money","As much time as I need","4","female","No","The speed is a bit too fast ","1","0","1","0","0","0","1","2","0","0","0","2","0","1","0","0","0","0","1","0","0","1","3","2","0","2","1","0","0","0","2","1","1","1","0","0","2","2","0","0","1","2","3","0","0","2","1","2","3","3","2","3","2","3","3","2","1","2","2","2","2","3","3","null","<div style=""font-size:75px;""><b>Correct</b></div>","null","","","","","","","","","","","","","","","","","","",""
"","html-keyboard-response","43","126399","0.0-2.11-2.11","025","21","f","1659373327867","q","q","Only if I get the answer right","You win money","As much time as I need","4","female","No","The speed is a bit too fast ","1","0","1","0","0","0","1","2","0","0","0","2","0","1","0","0","0","0","1","0","0","1","3","2","0","2","1","0","0","0","2","1","1","1","0","0","2","2","0","0","1","2","3","0","0","2","1","2","3","3","2","3","2","3","3","2","1","2","2","2","2","3","3","464.2999999523163","","q","","true","practice","11","up","down","0","q","1","0","1659373454711","","","","","","","",""
"","html-keyboard-response","44","126842","0.0-2.12-0.12","025","21","f","1659373327867","q","q","Only if I get the answer right","You win money","As much time as I need","4","female","No","The speed is a bit too fast ","1","0","1","0","0","0","1","2","0","0","0","2","0","1","0","0","0","0","1","0","0","1","3","2","0","2","1","0","0","0","2","1","1","1","0","0","2","2","0","0","1","2","3","0","0","2","1","2","3","3","2","3","2","3","3","2","1","2","2","2","2","3","3","442.5","<br><br><br><br><table><tr><td><img src=static/images/oddball_down.png></td><td><img src=static/images/oddball_down.png></td><td><img src=static/images/oddball_up.png></td></tr></table>","69","1","","","","","","","","","","","","","","","","","",""
"","html-keyboard-response","45","129349","0.0-2.12-1.12","025","21","f","1659373327867","q","q","Only if I get the answer right","You win money","As much time as I need","4","female","No","The speed is a bit too fast ","1","0","1","0","0","0","1","2","0","0","0","2","0","1","0","0","0","0","1","0","0","1","3","2","0","2","1","0","0","0","2","1","1","1","0","0","2","2","0","0","1","2","3","0","0","2","1","2","3","3","2","3","2","3","3","2","1","2","2","2","2","3","3","null","<div style=""font-size:75px;""><b>Correct</b></div>","null","","","","","","","","","","","","","","","","","","",""
"","html-keyboard-response","46","130355","0.0-2.12-2.12","025","21","f","1659373327867","q","q","Only if I get the answer right","You win money","As much time as I need","4","female","No","The speed is a bit too fast ","1","0","1","0","0","0","1","2","0","0","0","2","0","1","0","0","0","0","1","0","0","1","3","2","0","2","1","0","0","0","2","1","1","1","0","0","2","2","0","0","1","2","3","0","0","2","1","2","3","3","2","3","2","3","3","2","1","2","2","2","2","3","3","442.5","","e","","true","practice","12","down","up","2","e","1","0","1659373458667","","","","","","","",""
"","html-keyboard-response","47","130802","0.0-2.13-0.13","025","21","f","1659373327867","q","q","Only if I get the answer right","You win money","As much time as I need","4","female","No","The speed is a bit too fast ","1","0","1","0","0","0","1","2","0","0","0","2","0","1","0","0","0","0","1","0","0","1","3","2","0","2","1","0","0","0","2","1","1","1","0","0","2","2","0","0","1","2","3","0","0","2","1","2","3","3","2","3","2","3","3","2","1","2","2","2","2","3","3","446.3000000715256","<br><br><br><br><table><tr><td><img src=static/images/oddball_down.png></td><td><img src=static/images/oddball_down.png></td><td><img src=static/images/oddball_up.png></td></tr></table>","69","1","","","","","","","","","","","","","","","","","",""
"","html-keyboard-response","48","133307","0.0-2.13-1.13","025","21","f","1659373327867","q","q","Only if I get the answer right","You win money","As much time as I need","4","female","No","The speed is a bit too fast ","1","0","1","0","0","0","1","2","0","0","0","2","0","1","0","0","0","0","1","0","0","1","3","2","0","2","1","0","0","0","2","1","1","1","0","0","2","2","0","0","1","2","3","0","0","2","1","2","3","3","2","3","2","3","3","2","1","2","2","2","2","3","3","null","<div style=""font-size:75px;""><b>Correct</b></div>","null","","","","","","","","","","","","","","","","","","",""
"","html-keyboard-response","49","134315","0.0-2.13-2.13","025","21","f","1659373327867","q","q","Only if I get the answer right","You win money","As much time as I need","4","female","No","The speed is a bit too fast ","1","0","1","0","0","0","1","2","0","0","0","2","0","1","0","0","0","0","1","0","0","1","3","2","0","2","1","0","0","0","2","1","1","1","0","0","2","2","0","0","1","2","3","0","0","2","1","2","3","3","2","3","2","3","3","2","1","2","2","2","2","3","3","446.3000000715256","","e","","true","practice","13","down","up","2","e","1","0","1659373462627","","","","","","","",""
"","html-keyboard-response","50","134746","0.0-2.14-0.14","025","21","f","1659373327867","q","q","Only if I get the answer right","You win money","As much time as I need","4","female","No","The speed is a bit too fast ","1","0","1","0","0","0","1","2","0","0","0","2","0","1","0","0","0","0","1","0","0","1","3","2","0","2","1","0","0","0","2","1","1","1","0","0","2","2","0","0","1","2","3","0","0","2","1","2","3","3","2","3","2","3","3","2","1","2","2","2","2","3","3","430.39999997615814","<br><br><br><br><table><tr><td><img src=static/images/oddball_up.png></td><td><img src=static/images/oddball_down.png></td><td><img src=static/images/oddball_up.png></td></tr></table>","87","1","","","","","","","","","","","","","","","","","",""
"","html-keyboard-response","51","137248","0.0-2.14-1.14","025","21","f","1659373327867","q","q","Only if I get the answer right","You win money","As much time as I need","4","female","No","The speed is a bit too fast ","1","0","1","0","0","0","1","2","0","0","0","2","0","1","0","0","0","0","1","0","0","1","3","2","0","2","1","0","0","0","2","1","1","1","0","0","2","2","0","0","1","2","3","0","0","2","1","2","3","3","2","3","2","3","3","2","1","2","2","2","2","3","3","null","<div style=""font-size:75px;""><b>Correct</b></div>","null","","","","","","","","","","","","","","","","","","",""
"","html-keyboard-response","52","138254","0.0-2.14-2.14","025","21","f","1659373327867","q","q","Only if I get the answer right","You win money","As much time as I need","4","female","No","The speed is a bit too fast ","1","0","1","0","0","0","1","2","0","0","0","2","0","1","0","0","0","0","1","0","0","1","3","2","0","2","1","0","0","0","2","1","1","1","0","0","2","2","0","0","1","2","3","0","0","2","1","2","3","3","2","3","2","3","3","2","1","2","2","2","2","3","3","430.39999997615814","","w","","true","practice","14","up","down","1","w","1","0","1659373466566","","","","","","","",""
"","html-keyboard-response","53","138746","0.0-2.15-0.15","025","21","f","1659373327867","q","q","Only if I get the answer right","You win money","As much time as I need","4","female","No","The speed is a bit too fast ","1","0","1","0","0","0","1","2","0","0","0","2","0","1","0","0","0","0","1","0","0","1","3","2","0","2","1","0","0","0","2","1","1","1","0","0","2","2","0","0","1","2","3","0","0","2","1","2","3","3","2","3","2","3","3","2","1","2","2","2","2","3","3","491.10000002384186","<br><br><br><br><table><tr><td><img src=static/images/oddball_up.png></td><td><img src=static/images/oddball_down.png></td><td><img src=static/images/oddball_up.png></td></tr></table>","87","1","","","","","","","","","","","","","","","","","",""
"","html-keyboard-response","54","141253","0.0-2.15-1.15","025","21","f","1659373327867","q","q","Only if I get the answer right","You win money","As much time as I need","4","female","No","The speed is a bit too fast ","1","0","1","0","0","0","1","2","0","0","0","2","0","1","0","0","0","0","1","0","0","1","3","2","0","2","1","0","0","0","2","1","1","1","0","0","2","2","0","0","1","2","3","0","0","2","1","2","3","3","2","3","2","3","3","2","1","2","2","2","2","3","3","null","<div style=""font-size:75px;""><b>Correct</b></div>","null","","","","","","","","","","","","","","","","","","",""
"","html-keyboard-response","55","142261","0.0-2.15-2.15","025","21","f","1659373327867","q","q","Only if I get the answer right","You win money","As much time as I need","4","female","No","The speed is a bit too fast ","1","0","1","0","0","0","1","2","0","0","0","2","0","1","0","0","0","0","1","0","0","1","3","2","0","2","1","0","0","0","2","1","1","1","0","0","2","2","0","0","1","2","3","0","0","2","1","2","3","3","2","3","2","3","3","2","1","2","2","2","2","3","3","491.10000002384186","","w","","true","practice","15","up","down","1","w","1","0","1659373470573","","","","","","","",""
"","html-keyboard-response","56","142690","0.0-2.16-0.16","025","21","f","1659373327867","q","q","Only if I get the answer right","You win money","As much time as I need","4","female","No","The speed is a bit too fast ","1","0","1","0","0","0","1","2","0","0","0","2","0","1","0","0","0","0","1","0","0","1","3","2","0","2","1","0","0","0","2","1","1","1","0","0","2","2","0","0","1","2","3","0","0","2","1","2","3","3","2","3","2","3","3","2","1","2","2","2","2","3","3","428.2000000476837","<br><br><br><br><table><tr><td><img src=static/images/oddball_down.png></td><td><img src=static/images/oddball_up.png></td><td><img src=static/images/oddball_up.png></td></tr></table>","81","1","","","","","","","","","","","","","","","","","",""
"","html-keyboard-response","57","145195","0.0-2.16-1.16","025","21","f","1659373327867","q","q","Only if I get the answer right","You win money","As much time as I need","4","female","No","The speed is a bit too fast ","1","0","1","0","0","0","1","2","0","0","0","2","0","1","0","0","0","0","1","0","0","1","3","2","0","2","1","0","0","0","2","1","1","1","0","0","2","2","0","0","1","2","3","0","0","2","1","2","3","3","2","3","2","3","3","2","1","2","2","2","2","3","3","null","<div style=""font-size:75px;""><b>Correct</b></div>","null","","","","","","","","","","","","","","","","","","",""
"","html-keyboard-response","58","146201","0.0-2.16-2.16","025","21","f","1659373327867","q","q","Only if I get the answer right","You win money","As much time as I need","4","female","No","The speed is a bit too fast ","1","0","1","0","0","0","1","2","0","0","0","2","0","1","0","0","0","0","1","0","0","1","3","2","0","2","1","0","0","0","2","1","1","1","0","0","2","2","0","0","1","2","3","0","0","2","1","2","3","3","2","3","2","3","3","2","1","2","2","2","2","3","3","428.2000000476837","","q","","true","practice","16","up","down","0","q","1","0","1659373474513","","","","","","","",""
"","html-keyboard-response","59","146730","0.0-2.17-0.17","025","21","f","1659373327867","q","q","Only if I get the answer right","You win money","As much time as I need","4","female","No","The speed is a bit too fast ","1","0","1","0","0","0","1","2","0","0","0","2","0","1","0","0","0","0","1","0","0","1","3","2","0","2","1","0","0","0","2","1","1","1","0","0","2","2","0","0","1","2","3","0","0","2","1","2","3","3","2","3","2","3","3","2","1","2","2","2","2","3","3","527.6000000238419","<br><br><br><br><table><tr><td><img src=static/images/oddball_up.png></td><td><img src=static/images/oddball_down.png></td><td><img src=static/images/oddball_down.png></td></tr></table>","81","1","","","","","","","","","","","","","","","","","",""
"","html-keyboard-response","60","149236","0.0-2.17-1.17","025","21","f","1659373327867","q","q","Only if I get the answer right","You win money","As much time as I need","4","female","No","The speed is a bit too fast ","1","0","1","0","0","0","1","2","0","0","0","2","0","1","0","0","0","0","1","0","0","1","3","2","0","2","1","0","0","0","2","1","1","1","0","0","2","2","0","0","1","2","3","0","0","2","1","2","3","3","2","3","2","3","3","2","1","2","2","2","2","3","3","null","<div style=""font-size:75px;""><b>Correct</b></div>","null","","","","","","","","","","","","","","","","","","",""
"","html-keyboard-response","61","150243","0.0-2.17-2.17","025","21","f","1659373327867","q","q","Only if I get the answer right","You win money","As much time as I need","4","female","No","The speed is a bit too fast ","1","0","1","0","0","0","1","2","0","0","0","2","0","1","0","0","0","0","1","0","0","1","3","2","0","2","1","0","0","0","2","1","1","1","0","0","2","2","0","0","1","2","3","0","0","2","1","2","3","3","2","3","2","3","3","2","1","2","2","2","2","3","3","527.6000000238419","","q","","true","practice","17","down","up","0","q","1","0","1659373478555","","","","","","","",""
"","html-keyboard-response","62","150738","0.0-2.18-0.18","025","21","f","1659373327867","q","q","Only if I get the answer right","You win money","As much time as I need","4","female","No","The speed is a bit too fast ","1","0","1","0","0","0","1","2","0","0","0","2","0","1","0","0","0","0","1","0","0","1","3","2","0","2","1","0","0","0","2","1","1","1","0","0","2","2","0","0","1","2","3","0","0","2","1","2","3","3","2","3","2","3","3","2","1","2","2","2","2","3","3","494.2999999523163","<br><br><br><br><table><tr><td><img src=static/images/oddball_up.png></td><td><img src=static/images/oddball_down.png></td><td><img src=static/images/oddball_up.png></td></tr></table>","87","1","","","","","","","","","","","","","","","","","",""
"","html-keyboard-response","63","153244","0.0-2.18-1.18","025","21","f","1659373327867","q","q","Only if I get the answer right","You win money","As much time as I need","4","female","No","The speed is a bit too fast ","1","0","1","0","0","0","1","2","0","0","0","2","0","1","0","0","0","0","1","0","0","1","3","2","0","2","1","0","0","0","2","1","1","1","0","0","2","2","0","0","1","2","3","0","0","2","1","2","3","3","2","3","2","3","3","2","1","2","2","2","2","3","3","null","<div style=""font-size:75px;""><b>Correct</b></div>","null","","","","","","","","","","","","","","","","","","",""
"","html-keyboard-response","64","154250","0.0-2.18-2.18","025","21","f","1659373327867","q","q","Only if I get the answer right","You win money","As much time as I need","4","female","No","The speed is a bit too fast ","1","0","1","0","0","0","1","2","0","0","0","2","0","1","0","0","0","0","1","0","0","1","3","2","0","2","1","0","0","0","2","1","1","1","0","0","2","2","0","0","1","2","3","0","0","2","1","2","3","3","2","3","2","3","3","2","1","2","2","2","2","3","3","494.2999999523163","","w","","true","practice","18","up","down","1","w","1","0","1659373482562","","","","","","","",""
"","html-keyboard-response","65","154634","0.0-2.19-0.19","025","21","f","1659373327867","q","q","Only if I get the answer right","You win money","As much time as I need","4","female","No","The speed is a bit too fast ","1","0","1","0","0","0","1","2","0","0","0","2","0","1","0","0","0","0","1","0","0","1","3","2","0","2","1","0","0","0","2","1","1","1","0","0","2","2","0","0","1","2","3","0","0","2","1","2","3","3","2","3","2","3","3","2","1","2","2","2","2","3","3","383","<br><br><br><br><table><tr><td><img src=static/images/oddball_up.png></td><td><img src=static/images/oddball_down.png></td><td><img src=static/images/oddball_down.png></td></tr></table>","81","1","","","","","","","","","","","","","","","","","",""
"","html-keyboard-response","66","157135","0.0-2.19-1.19","025","21","f","1659373327867","q","q","Only if I get the answer right","You win money","As much time as I need","4","female","No","The speed is a bit too fast ","1","0","1","0","0","0","1","2","0","0","0","2","0","1","0","0","0","0","1","0","0","1","3","2","0","2","1","0","0","0","2","1","1","1","0","0","2","2","0","0","1","2","3","0","0","2","1","2","3","3","2","3","2","3","3","2","1","2","2","2","2","3","3","null","<div style=""font-size:75px;""><b>Correct</b></div>","null","","","","","","","","","","","","","","","","","","",""
"","html-keyboard-response","67","158141","0.0-2.19-2.19","025","21","f","1659373327867","q","q","Only if I get the answer right","You win money","As much time as I need","4","female","No","The speed is a bit too fast ","1","0","1","0","0","0","1","2","0","0","0","2","0","1","0","0","0","0","1","0","0","1","3","2","0","2","1","0","0","0","2","1","1","1","0","0","2","2","0","0","1","2","3","0","0","2","1","2","3","3","2","3","2","3","3","2","1","2","2","2","2","3","3","383","","q","","true","practice","19","down","up","0","q","1","0","1659373486453","","","","","","","",""
"","image-keyboard-response","68","164922","0.0-3.0-0.0","025","21","f","1659373327867","q","q","Only if I get the answer right","You win money","As much time as I need","4","female","No","The speed is a bit too fast ","1","0","1","0","0","0","1","2","0","0","0","2","0","1","0","0","0","0","1","0","0","1","3","2","0","2","1","0","0","0","2","1","1","1","0","0","2","2","0","0","1","2","3","0","0","2","1","2","3","3","2","3","2","3","3","2","1","2","2","2","2","3","3","6780","static/images/instructions/Slide8.png","39","","","","","","","","","","","","","","","","","","",""
"","image-keyboard-response","69","179130","0.0-3.1-0.1","025","21","f","1659373327867","q","q","Only if I get the answer right","You win money","As much time as I need","4","female","No","The speed is a bit too fast ","1","0","1","0","0","0","1","2","0","0","0","2","0","1","0","0","0","0","1","0","0","1","3","2","0","2","1","0","0","0","2","1","1","1","0","0","2","2","0","0","1","2","3","0","0","2","1","2","3","3","2","3","2","3","3","2","1","2","2","2","2","3","3","14207.100000023842","static/images/instructions/Slide9.png","39","","","","","","","","","","","","","","","","","","",""
"","image-keyboard-response","70","187806","0.0-3.2-0.2","025","21","f","1659373327867","q","q","Only if I get the answer right","You win money","As much time as I need","4","female","No","The speed is a bit too fast ","1","0","1","0","0","0","1","2","0","0","0","2","0","1","0","0","0","0","1","0","0","1","3","2","0","2","1","0","0","0","2","1","1","1","0","0","2","2","0","0","1","2","3","0","0","2","1","2","3","3","2","3","2","3","3","2","1","2","2","2","2","3","3","8687.399999976158","static/images/instructions/Slide10.png","39","","","","","","","","","","","","","","","","","","",""
"","image-keyboard-response","71","197510","0.0-3.3-0.3","025","21","f","1659373327867","q","q","Only if I get the answer right","You win money","As much time as I need","4","female","No","The speed is a bit too fast ","1","0","1","0","0","0","1","2","0","0","0","2","0","1","0","0","0","0","1","0","0","1","3","2","0","2","1","0","0","0","2","1","1","1","0","0","2","2","0","0","1","2","3","0","0","2","1","2","3","3","2","3","2","3","3","2","1","2","2","2","2","3","3","9703.299999952316","static/images/instructions/Slide11.png","39","","","","","","","","","","","","","","","","","","",""
"","image-keyboard-response","72","200782","0.0-3.4-0.4","025","21","f","1659373327867","q","q","Only if I get the answer right","You win money","As much time as I need","4","female","No","The speed is a bit too fast ","1","0","1","0","0","0","1","2","0","0","0","2","0","1","0","0","0","0","1","0","0","1","3","2","0","2","1","0","0","0","2","1","1","1","0","0","2","2","0","0","1","2","3","0","0","2","1","2","3","3","2","3","2","3","3","2","1","2","2","2","2","3","3","3271.399999976158","static/images/instructions/Slide12.png","39","","","","","","","","","","","","","","","","","","",""
"","image-keyboard-response","73","205862","0.0-3.5-0.5","025","21","f","1659373327867","q","q","Only if I get the answer right","You win money","As much time as I need","4","female","No","The speed is a bit too fast ","1","0","1","0","0","0","1","2","0","0","0","2","0","1","0","0","0","0","1","0","0","1","3","2","0","2","1","0","0","0","2","1","1","1","0","0","2","2","0","0","1","2","3","0","0","2","1","2","3","3","2","3","2","3","3","2","1","2","2","2","2","3","3","5079.399999976158","static/images/instructions/Slide13.png","39","","","","","","","","","","","","","","","","","","",""
"","image-keyboard-response","74","218006","0.0-3.6-0.6","025","21","f","1659373327867","q","q","Only if I get the answer right","You win money","As much time as I need","4","female","No","The speed is a bit too fast ","1","0","1","0","0","0","1","2","0","0","0","2","0","1","0","0","0","0","1","0","0","1","3","2","0","2","1","0","0","0","2","1","1","1","0","0","2","2","0","0","1","2","3","0","0","2","1","2","3","3","2","3","2","3","3","2","1","2","2","2","2","3","3","12143.600000023842","static/images/instructions/Slide14.png","39","","","","","","","","","","","","","","","","","","",""
"","image-keyboard-response","75","223342","0.0-3.7-0.7","025","21","f","1659373327867","q","q","Only if I get the answer right","You win money","As much time as I need","4","female","No","The speed is a bit too fast ","1","0","1","0","0","0","1","2","0","0","0","2","0","1","0","0","0","0","1","0","0","1","3","2","0","2","1","0","0","0","2","1","1","1","0","0","2","2","0","0","1","2","3","0","0","2","1","2","3","3","2","3","2","3","3","2","1","2","2","2","2","3","3","5335.200000047684","static/images/instructions/Slide15.png","39","","","","","","","","","","","","","","","","","","",""
"","image-keyboard-response","76","237318","0.0-3.8-0.8","025","21","f","1659373327867","q","q","Only if I get the answer right","You win money","As much time as I need","4","female","No","The speed is a bit too fast ","1","0","1","0","0","0","1","2","0","0","0","2","0","1","0","0","0","0","1","0","0","1","3","2","0","2","1","0","0","0","2","1","1","1","0","0","2","2","0","0","1","2","3","0","0","2","1","2","3","3","2","3","2","3","3","2","1","2","2","2","2","3","3","13975.299999952316","static/images/instructions/Slide16.png","39","","","","","","","","","","","","","","","","","","",""
"","image-keyboard-response","77","240742","0.0-3.9-0.9","025","21","f","1659373327867","q","q","Only if I get the answer right","You win money","As much time as I need","4","female","No","The speed is a bit too fast ","1","0","1","0","0","0","1","2","0","0","0","2","0","1","0","0","0","0","1","0","0","1","3","2","0","2","1","0","0","0","2","1","1","1","0","0","2","2","0","0","1","2","3","0","0","2","1","2","3","3","2","3","2","3","3","2","1","2","2","2","2","3","3","3423.2999999523163","static/images/instructions/Slide17.png","39","","","","","","","","","","","","","","","","","","",""
"","survey-multi-choice","78","278290","0.0-4.0","025","21","f","1659373327867","q","q","Only if I get the answer right","You win money","As much time as I need","4","female","No","The speed is a bit too fast ","1","0","1","0","0","0","1","2","0","0","0","2","0","1","0","0","0","0","1","0","0","1","3","2","0","2","1","0","0","0","2","1","1","1","0","0","2","2","0","0","1","2","3","0","0","2","1","2","3","3","2","3","2","3","3","2","1","2","2","2","2","3","3","37487.299999952316","","","","","","","","","","","","","","{""q1"":""q"",""q2"":""q"",""q3"":""Only if I get the answer right"",""q4"":""You win money"",""q5"":""As much time as I need""}","[0,4,1,3,2]","","","","","",""
"","image-keyboard-response","79","283778","0.0-5.0-0.0","025","21","f","1659373327867","q","q","Only if I get the answer right","You win money","As much time as I need","4","female","No","The speed is a bit too fast ","1","0","1","0","0","0","1","2","0","0","0","2","0","1","0","0","0","0","1","0","0","1","3","2","0","2","1","0","0","0","2","1","1","1","0","0","2","2","0","0","1","2","3","0","0","2","1","2","3","3","2","3","2","3","3","2","1","2","2","2","2","3","3","5486.099999904633","static/images/instructions/Slide18.png","39","","","","","","","","","","","","","","","","","","",""
"","html-keyboard-response","80","284794","0.0-6.0-0.0-0.0","025","21","f","1659373327867","q","q","Only if I get the answer right","You win money","As much time as I need","4","female","No","The speed is a bit too fast ","1","0","1","0","0","0","1","2","0","0","0","2","0","1","0","0","0","0","1","0","0","1","3","2","0","2","1","0","0","0","2","1","1","1","0","0","2","2","0","0","1","2","3","0","0","2","1","2","3","3","2","3","2","3","3","2","1","2","2","2","2","3","3","null","<div style=""font-size:75px;"">3</div>","null","","","","","","","","","","","","","","","","","","",""
"","html-keyboard-response","81","285796","0.0-6.0-0.1-0.1","025","21","f","1659373327867","q","q","Only if I get the answer right","You win money","As much time as I need","4","female","No","The speed is a bit too fast ","1","0","1","0","0","0","1","2","0","0","0","2","0","1","0","0","0","0","1","0","0","1","3","2","0","2","1","0","0","0","2","1","1","1","0","0","2","2","0","0","1","2","3","0","0","2","1","2","3","3","2","3","2","3","3","2","1","2","2","2","2","3","3","null","<div style=""font-size:75px;"">2</div>","null","","","","","","","","","","","","","","","","","","",""
"","html-keyboard-response","82","286799","0.0-6.0-0.2-0.2","025","21","f","1659373327867","q","q","Only if I get the answer right","You win money","As much time as I need","4","female","No","The speed is a bit too fast ","1","0","1","0","0","0","1","2","0","0","0","2","0","1","0","0","0","0","1","0","0","1","3","2","0","2","1","0","0","0","2","1","1","1","0","0","2","2","0","0","1","2","3","0","0","2","1","2","3","3","2","3","2","3","3","2","1","2","2","2","2","3","3","null","<div style=""font-size:75px;"">1</div>","null","","","","","","","","","","","","","","","","","","",""
"","html-keyboard-response","83","287298","0.0-6.0-1.0-0.0","025","21","f","1659373327867","q","q","Only if I get the answer right","You win money","As much time as I need","4","female","No","The speed is a bit too fast ","1","0","1","0","0","0","1","2","0","0","0","2","0","1","0","0","0","0","1","0","0","1","3","2","0","2","1","0","0","0","2","1","1","1","0","0","2","2","0","0","1","2","3","0","0","2","1","2","3","3","2","3","2","3","3","2","1","2","2","2","2","3","3","498.2000000476837","<div style=""color:green; font-size:75px;""><b>$1.00</b></div><br><br><br><br><table><tr><td><img src=static/images/oddball_up.png></td><td><img src=static/images/oddball_up.png></td><td><img src=static/images/oddball_down.png></td></tr></table>","69","1","","","","","","","","","","","","","","","","","",""
"","html-keyboard-response","84","287300","0.0-6.0-1.0-1.0","025","21","f","1659373327867","q","q","Only if I get the answer right","You win money","As much time as I need","4","female","No","The speed is a bit too fast ","1","0","1","0","0","0","1","2","0","0","0","2","0","1","0","0","0","0","1","0","0","1","3","2","0","2","1","0","0","0","2","1","1","1","0","0","2","2","0","0","1","2","3","0","0","2","1","2","3","3","2","3","2","3","3","2","1","2","2","2","2","3","3","498.2000000476837","","e","","true","0","0","up","down","2","e","1","0","1659373615612","","","false","60","0","0","1","null"
"","html-keyboard-response","85","288053","0.0-6.0-1.1-0.1","025","21","f","1659373327867","q","q","Only if I get the answer right","You win money","As much time as I need","4","female","No","The speed is a bit too fast ","1","0","1","0","0","0","1","2","0","0","0","2","0","1","0","0","0","0","1","0","0","1","3","2","0","2","1","0","0","0","2","1","1","1","0","0","2","2","0","0","1","2","3","0","0","2","1","2","3","3","2","3","2","3","3","2","1","2","2","2","2","3","3","null","<div style=""color:green; font-size:75px;""><b>$1.00</b></div><br><br><br><br><table><tr><td><img src=static/images/oddball_up.png></td><td><img src=static/images/oddball_up.png></td><td><img src=static/images/oddball_down.png></td></tr></table>","null","","","","","","","","","","","","","","","","","","",""
"","html-keyboard-response","86","288055","0.0-6.0-1.1-1.1","025","21","f","1659373327867","q","q","Only if I get the answer right","You win money","As much time as I need","4","female","No","The speed is a bit too fast ","1","0","1","0","0","0","1","2","0","0","0","2","0","1","0","0","0","0","1","0","0","1","3","2","0","2","1","0","0","0","2","1","1","1","0","0","2","2","0","0","1","2","3","0","0","2","1","2","3","3","2","3","2","3","3","2","1","2","2","2","2","3","3","null","","null","","true","0","1","up","down","2","e","0","0","1659373616367","","","false","60","1","0.016666666666666666","1","true"
"","html-keyboard-response","87","288610","0.0-6.0-1.2-0.2","025","21","f","1659373327867","q","q","Only if I get the answer right","You win money","As much time as I need","4","female","No","The speed is a bit too fast ","1","0","1","0","0","0","1","2","0","0","0","2","0","1","0","0","0","0","1","0","0","1","3","2","0","2","1","0","0","0","2","1","1","1","0","0","2","2","0","0","1","2","3","0","0","2","1","2","3","3","2","3","2","3","3","2","1","2","2","2","2","3","3","553.8999999761581","<div style=""color:green; font-size:75px;""><b>$1.00</b></div><br><br><br><br><table><tr><td><img src=static/images/oddball_up.png></td><td><img src=static/images/oddball_down.png></td><td><img src=static/images/oddball_up.png></td></tr></table>","87","1","","","","","","","","","","","","","","","","","",""
"","html-keyboard-response","88","288612","0.0-6.0-1.2-1.2","025","21","f","1659373327867","q","q","Only if I get the answer right","You win money","As much time as I need","4","female","No","The speed is a bit too fast ","1","0","1","0","0","0","1","2","0","0","0","2","0","1","0","0","0","0","1","0","0","1","3","2","0","2","1","0","0","0","2","1","1","1","0","0","2","2","0","0","1","2","3","0","0","2","1","2","3","3","2","3","2","3","3","2","1","2","2","2","2","3","3","553.8999999761581","","w","","true","0","2","up","down","1","w","1","0","1659373616924","","","false","60","2","0.016666666666666666","1","false"
"","html-keyboard-response","89","289194","0.0-6.0-1.3-0.3","025","21","f","1659373327867","q","q","Only if I get the answer right","You win money","As much time as I need","4","female","No","The speed is a bit too fast ","1","0","1","0","0","0","1","2","0","0","0","2","0","1","0","0","0","0","1","0","0","1","3","2","0","2","1","0","0","0","2","1","1","1","0","0","2","2","0","0","1","2","3","0","0","2","1","2","3","3","2","3","2","3","3","2","1","2","2","2","2","3","3","581.1999999284744","<div style=""color:green; font-size:75px;""><b>$1.00</b></div><br><br><br><br><table><tr><td><img src=static/images/oddball_up.png></td><td><img src=static/images/oddball_down.png></td><td><img src=static/images/oddball_down.png></td></tr></table>","81","1","","","","","","","","","","","","","","","","","",""
"","html-keyboard-response","90","289196","0.0-6.0-1.3-1.3","025","21","f","1659373327867","q","q","Only if I get the answer right","You win money","As much time as I need","4","female","No","The speed is a bit too fast ","1","0","1","0","0","0","1","2","0","0","0","2","0","1","0","0","0","0","1","0","0","1","3","2","0","2","1","0","0","0","2","1","1","1","0","0","2","2","0","0","1","2","3","0","0","2","1","2","3","3","2","3","2","3","3","2","1","2","2","2","2","3","3","581.1999999284744","","q","","true","0","3","down","up","0","q","1","0","1659373617508","","","false","60","3","0.03333333333333333","1","false"
"","html-keyboard-response","91","289770","0.0-6.0-1.4-0.4","025","21","f","1659373327867","q","q","Only if I get the answer right","You win money","As much time as I need","4","female","No","The speed is a bit too fast ","1","0","1","0","0","0","1","2","0","0","0","2","0","1","0","0","0","0","1","0","0","1","3","2","0","2","1","0","0","0","2","1","1","1","0","0","2","2","0","0","1","2","3","0","0","2","1","2","3","3","2","3","2","3","3","2","1","2","2","2","2","3","3","572.8999999761581","<div style=""color:green; font-size:75px;""><b>$1.00</b></div><br><br><br><br><table><tr><td><img src=static/images/oddball_down.png></td><td><img src=static/images/oddball_up.png></td><td><img src=static/images/oddball_up.png></td></tr></table>","81","1","","","","","","","","","","","","","","","","","",""
"","html-keyboard-response","92","289772","0.0-6.0-1.4-1.4","025","21","f","1659373327867","q","q","Only if I get the answer right","You win money","As much time as I need","4","female","No","The speed is a bit too fast ","1","0","1","0","0","0","1","2","0","0","0","2","0","1","0","0","0","0","1","0","0","1","3","2","0","2","1","0","0","0","2","1","1","1","0","0","2","2","0","0","1","2","3","0","0","2","1","2","3","3","2","3","2","3","3","2","1","2","2","2","2","3","3","572.8999999761581","","q","","true","0","4","up","down","0","q","1","0","1659373618084","","","false","60","4","0.05","1","false"
"","html-keyboard-response","93","290369","0.0-6.0-1.5-0.5","025","21","f","1659373327867","q","q","Only if I get the answer right","You win money","As much time as I need","4","female","No","The speed is a bit too fast ","1","0","1","0","0","0","1","2","0","0","0","2","0","1","0","0","0","0","1","0","0","1","3","2","0","2","1","0","0","0","2","1","1","1","0","0","2","2","0","0","1","2","3","0","0","2","1","2","3","3","2","3","2","3","3","2","1","2","2","2","2","3","3","596.7000000476837","<div style=""color:green; font-size:75px;""><b>$1.00</b></div><br><br><br><br><table><tr><td><img src=static/images/oddball_up.png></td><td><img src=static/images/oddball_down.png></td><td><img src=static/images/oddball_down.png></td></tr></table>","81","1","","","","","","","","","","","","","","","","","",""
"","html-keyboard-response","94","290371","0.0-6.0-1.5-1.5","025","21","f","1659373327867","q","q","Only if I get the answer right","You win money","As much time as I need","4","female","No","The speed is a bit too fast ","1","0","1","0","0","0","1","2","0","0","0","2","0","1","0","0","0","0","1","0","0","1","3","2","0","2","1","0","0","0","2","1","1","1","0","0","2","2","0","0","1","2","3","0","0","2","1","2","3","3","2","3","2","3","3","2","1","2","2","2","2","3","3","596.7000000476837","","q","","true","0","5","down","up","0","q","1","0","1659373618684","","","false","60","5","0.06666666666666667","1","false"
"","html-keyboard-response","95","290890","0.0-6.0-1.6-0.6","025","21","f","1659373327867","q","q","Only if I get the answer right","You win money","As much time as I need","4","female","No","The speed is a bit too fast ","1","0","1","0","0","0","1","2","0","0","0","2","0","1","0","0","0","0","1","0","0","1","3","2","0","2","1","0","0","0","2","1","1","1","0","0","2","2","0","0","1","2","3","0","0","2","1","2","3","3","2","3","2","3","3","2","1","2","2","2","2","3","3","517.5","<div style=""color:green; font-size:75px;""><b>$1.00</b></div><br><br><br><br><table><tr><td><img src=static/images/oddball_down.png></td><td><img src=static/images/oddball_down.png></td><td><img src=static/images/oddball_up.png></td></tr></table>","69","1","","","","","","","","","","","","","","","","","",""
"","html-keyboard-response","96","290892","0.0-6.0-1.6-1.6","025","21","f","1659373327867","q","q","Only if I get the answer right","You win money","As much time as I need","4","female","No","The speed is a bit too fast ","1","0","1","0","0","0","1","2","0","0","0","2","0","1","0","0","0","0","1","0","0","1","3","2","0","2","1","0","0","0","2","1","1","1","0","0","2","2","0","0","1","2","3","0","0","2","1","2","3","3","2","3","2","3","3","2","1","2","2","2","2","3","3","517.5","","e","","true","0","6","down","up","2","e","1","0","1659373619204","","","false","60","6","0.08333333333333333","1","false"
"","html-keyboard-response","97","291393","0.0-6.0-1.7-0.7","025","21","f","1659373327867","q","q","Only if I get the answer right","You win money","As much time as I need","4","female","No","The speed is a bit too fast ","1","0","1","0","0","0","1","2","0","0","0","2","0","1","0","0","0","0","1","0","0","1","3","2","0","2","1","0","0","0","2","1","1","1","0","0","2","2","0","0","1","2","3","0","0","2","1","2","3","3","2","3","2","3","3","2","1","2","2","2","2","3","3","500.60000002384186","<div style=""color:green; font-size:75px;""><b>$1.00</b></div><br><br><br><br><table><tr><td><img src=static/images/oddball_up.png></td><td><img src=static/images/oddball_down.png></td><td><img src=static/images/oddball_down.png></td></tr></table>","81","1","","","","","","","","","","","","","","","","","",""
"","html-keyboard-response","98","291396","0.0-6.0-1.7-1.7","025","21","f","1659373327867","q","q","Only if I get the answer right","You win money","As much time as I need","4","female","No","The speed is a bit too fast ","1","0","1","0","0","0","1","2","0","0","0","2","0","1","0","0","0","0","1","0","0","1","3","2","0","2","1","0","0","0","2","1","1","1","0","0","2","2","0","0","1","2","3","0","0","2","1","2","3","3","2","3","2","3","3","2","1","2","2","2","2","3","3","500.60000002384186","","q","","true","0","7","down","up","0","q","1","0","1659373619708","","","false","60","7","0.1","1","false"
"","html-keyboard-response","99","291922","0.0-6.0-1.8-0.8","025","21","f","1659373327867","q","q","Only if I get the answer right","You win money","As much time as I need","4","female","No","The speed is a bit too fast ","1","0","1","0","0","0","1","2","0","0","0","2","0","1","0","0","0","0","1","0","0","1","3","2","0","2","1","0","0","0","2","1","1","1","0","0","2","2","0","0","1","2","3","0","0","2","1","2","3","3","2","3","2","3","3","2","1","2","2","2","2","3","3","525.5","<div style=""color:green; font-size:75px;""><b>$1.00</b></div><br><br><br><br><table><tr><td><img src=static/images/oddball_down.png></td><td><img src=static/images/oddball_up.png></td><td><img src=static/images/oddball_down.png></td></tr></table>","87","1","","","","","","","","","","","","","","","","","",""
"","html-keyboard-response","100","291924","0.0-6.0-1.8-1.8","025","21","f","1659373327867","q","q","Only if I get the answer right","You win money","As much time as I need","4","female","No","The speed is a bit too fast ","1","0","1","0","0","0","1","2","0","0","0","2","0","1","0","0","0","0","1","0","0","1","3","2","0","2","1","0","0","0","2","1","1","1","0","0","2","2","0","0","1","2","3","0","0","2","1","2","3","3","2","3","2","3","3","2","1","2","2","2","2","3","3","525.5","","w","","true","0","8","down","up","1","w","1","0","1659373620236","","","false","60","8","0.11666666666666667","1","false"
"","html-keyboard-response","101","292450","0.0-6.0-1.9-0.9","025","21","f","1659373327867","q","q","Only if I get the answer right","You win money","As much time as I need","4","female","No","The speed is a bit too fast ","1","0","1","0","0","0","1","2","0","0","0","2","0","1","0","0","0","0","1","0","0","1","3","2","0","2","1","0","0","0","2","1","1","1","0","0","2","2","0","0","1","2","3","0","0","2","1","2","3","3","2","3","2","3","3","2","1","2","2","2","2","3","3","524.5999999046326","<div style=""color:green; font-size:75px;""><b>$1.00</b></div><br><br><br><br><table><tr><td><img src=static/images/oddball_up.png></td><td><img src=static/images/oddball_down.png></td><td><img src=static/images/oddball_down.png></td></tr></table>","81","1","","","","","","","","","","","","","","","","","",""
"","html-keyboard-response","102","292452","0.0-6.0-1.9-1.9","025","21","f","1659373327867","q","q","Only if I get the answer right","You win money","As much time as I need","4","female","No","The speed is a bit too fast ","1","0","1","0","0","0","1","2","0","0","0","2","0","1","0","0","0","0","1","0","0","1","3","2","0","2","1","0","0","0","2","1","1","1","0","0","2","2","0","0","1","2","3","0","0","2","1","2","3","3","2","3","2","3","3","2","1","2","2","2","2","3","3","524.5999999046326","","q","","true","0","9","down","up","0","q","1","0","1659373620764","","","false","60","9","0.13333333333333333","1","false"
"","html-keyboard-response","103","292922","0.0-6.0-1.10-0.10","025","21","f","1659373327867","q","q","Only if I get the answer right","You win money","As much time as I need","4","female","No","The speed is a bit too fast ","1","0","1","0","0","0","1","2","0","0","0","2","0","1","0","0","0","0","1","0","0","1","3","2","0","2","1","0","0","0","2","1","1","1","0","0","2","2","0","0","1","2","3","0","0","2","1","2","3","3","2","3","2","3","3","2","1","2","2","2","2","3","3","469.1999999284744","<div style=""color:green; font-size:75px;""><b>$1.00</b></div><br><br><br><br><table><tr><td><img src=static/images/oddball_down.png></td><td><img src=static/images/oddball_down.png></td><td><img src=static/images/oddball_up.png></td></tr></table>","69","1","","","","","","","","","","","","","","","","","",""
"","html-keyboard-response","104","292924","0.0-6.0-1.10-1.10","025","21","f","1659373327867","q","q","Only if I get the answer right","You win money","As much time as I need","4","female","No","The speed is a bit too fast ","1","0","1","0","0","0","1","2","0","0","0","2","0","1","0","0","0","0","1","0","0","1","3","2","0","2","1","0","0","0","2","1","1","1","0","0","2","2","0","0","1","2","3","0","0","2","1","2","3","3","2","3","2","3","3","2","1","2","2","2","2","3","3","469.1999999284744","","e","","true","0","10","down","up","2","e","1","0","1659373621236","","","false","60","10","0.15","1","false"
"","html-keyboard-response","105","293442","0.0-6.0-1.11-0.11","025","21","f","1659373327867","q","q","Only if I get the answer right","You win money","As much time as I need","4","female","No","The speed is a bit too fast ","1","0","1","0","0","0","1","2","0","0","0","2","0","1","0","0","0","0","1","0","0","1","3","2","0","2","1","0","0","0","2","1","1","1","0","0","2","2","0","0","1","2","3","0","0","2","1","2","3","3","2","3","2","3","3","2","1","2","2","2","2","3","3","517.1000000238419","<div style=""color:green; font-size:75px;""><b>$1.00</b></div><br><br><br><br><table><tr><td><img src=static/images/oddball_down.png></td><td><img src=static/images/oddball_down.png></td><td><img src=static/images/oddball_up.png></td></tr></table>","69","1","","","","","","","","","","","","","","","","","",""
"","html-keyboard-response","106","293444","0.0-6.0-1.11-1.11","025","21","f","1659373327867","q","q","Only if I get the answer right","You win money","As much time as I need","4","female","No","The speed is a bit too fast ","1","0","1","0","0","0","1","2","0","0","0","2","0","1","0","0","0","0","1","0","0","1","3","2","0","2","1","0","0","0","2","1","1","1","0","0","2","2","0","0","1","2","3","0","0","2","1","2","3","3","2","3","2","3","3","2","1","2","2","2","2","3","3","517.1000000238419","","e","","true","0","11","down","up","2","e","1","0","1659373621756","","","false","60","11","0.16666666666666666","1","false"
"","html-keyboard-response","107","293922","0.0-6.0-1.12-0.12","025","21","f","1659373327867","q","q","Only if I get the answer right","You win money","As much time as I need","4","female","No","The speed is a bit too fast ","1","0","1","0","0","0","1","2","0","0","0","2","0","1","0","0","0","0","1","0","0","1","3","2","0","2","1","0","0","0","2","1","1","1","0","0","2","2","0","0","1","2","3","0","0","2","1","2","3","3","2","3","2","3","3","2","1","2","2","2","2","3","3","477","<div style=""color:green; font-size:75px;""><b>$1.00</b></div><br><br><br><br><table><tr><td><img src=static/images/oddball_down.png></td><td><img src=static/images/oddball_down.png></td><td><img src=static/images/oddball_up.png></td></tr></table>","69","1","","","","","","","","","","","","","","","","","",""
"","html-keyboard-response","108","293924","0.0-6.0-1.12-1.12","025","21","f","1659373327867","q","q","Only if I get the answer right","You win money","As much time as I need","4","female","No","The speed is a bit too fast ","1","0","1","0","0","0","1","2","0","0","0","2","0","1","0","0","0","0","1","0","0","1","3","2","0","2","1","0","0","0","2","1","1","1","0","0","2","2","0","0","1","2","3","0","0","2","1","2","3","3","2","3","2","3","3","2","1","2","2","2","2","3","3","477","","e","","true","0","12","down","up","2","e","1","0","1659373622236","","","false","60","12","0.18333333333333332","1","false"
"","html-keyboard-response","109","294426","0.0-6.0-1.13-0.13","025","21","f","1659373327867","q","q","Only if I get the answer right","You win money","As much time as I need","4","female","No","The speed is a bit too fast ","1","0","1","0","0","0","1","2","0","0","0","2","0","1","0","0","0","0","1","0","0","1","3","2","0","2","1","0","0","0","2","1","1","1","0","0","2","2","0","0","1","2","3","0","0","2","1","2","3","3","2","3","2","3","3","2","1","2","2","2","2","3","3","501","<div style=""color:green; font-size:75px;""><b>$1.00</b></div><br><br><br><br><table><tr><td><img src=static/images/oddball_down.png></td><td><img src=static/images/oddball_down.png></td><td><img src=static/images/oddball_up.png></td></tr></table>","69","1","","","","","","","","","","","","","","","","","",""
"","html-keyboard-response","110","294428","0.0-6.0-1.13-1.13","025","21","f","1659373327867","q","q","Only if I get the answer right","You win money","As much time as I need","4","female","No","The speed is a bit too fast ","1","0","1","0","0","0","1","2","0","0","0","2","0","1","0","0","0","0","1","0","0","1","3","2","0","2","1","0","0","0","2","1","1","1","0","0","2","2","0","0","1","2","3","0","0","2","1","2","3","3","2","3","2","3","3","2","1","2","2","2","2","3","3","501","","e","","true","0","13","down","up","2","e","1","0","1659373622740","","","false","60","13","0.2","1","false"
"","html-keyboard-response","111","294906","0.0-6.0-1.14-0.14","025","21","f","1659373327867","q","q","Only if I get the answer right","You win money","As much time as I need","4","female","No","The speed is a bit too fast ","1","0","1","0","0","0","1","2","0","0","0","2","0","1","0","0","0","0","1","0","0","1","3","2","0","2","1","0","0","0","2","1","1","1","0","0","2","2","0","0","1","2","3","0","0","2","1","2","3","3","2","3","2","3","3","2","1","2","2","2","2","3","3","477.1999999284744","<div style=""color:green; font-size:75px;""><b>$1.00</b></div><br><br><br><br><table><tr><td><img src=static/images/oddball_down.png></td><td><img src=static/images/oddball_down.png></td><td><img src=static/images/oddball_up.png></td></tr></table>","69","1","","","","","","","","","","","","","","","","","",""
"","html-keyboard-response","112","294908","0.0-6.0-1.14-1.14","025","21","f","1659373327867","q","q","Only if I get the answer right","You win money","As much time as I need","4","female","No","The speed is a bit too fast ","1","0","1","0","0","0","1","2","0","0","0","2","0","1","0","0","0","0","1","0","0","1","3","2","0","2","1","0","0","0","2","1","1","1","0","0","2","2","0","0","1","2","3","0","0","2","1","2","3","3","2","3","2","3","3","2","1","2","2","2","2","3","3","477.1999999284744","","e","","true","0","14","down","up","2","e","1","0","1659373623220","","","false","60","14","0.21666666666666667","1","false"
"","html-keyboard-response","113","295418","0.0-6.0-1.15-0.15","025","21","f","1659373327867","q","q","Only if I get the answer right","You win money","As much time as I need","4","female","No","The speed is a bit too fast ","1","0","1","0","0","0","1","2","0","0","0","2","0","1","0","0","0","0","1","0","0","1","3","2","0","2","1","0","0","0","2","1","1","1","0","0","2","2","0","0","1","2","3","0","0","2","1","2","3","3","2","3","2","3","3","2","1","2","2","2","2","3","3","509.2999999523163","<div style=""color:green; font-size:75px;""><b>$1.00</b></div><br><br><br><br><table><tr><td><img src=static/images/oddball_up.png></td><td><img src=static/images/oddball_down.png></td><td><img src=static/images/oddball_up.png></td></tr></table>","81","1","","","","","","","","","","","","","","","","","",""
"","html-keyboard-response","114","295420","0.0-6.0-1.15-1.15","025","21","f","1659373327867","q","q","Only if I get the answer right","You win money","As much time as I need","4","female","No","The speed is a bit too fast ","1","0","1","0","0","0","1","2","0","0","0","2","0","1","0","0","0","0","1","0","0","1","3","2","0","2","1","0","0","0","2","1","1","1","0","0","2","2","0","0","1","2","3","0","0","2","1","2","3","3","2","3","2","3","3","2","1","2","2","2","2","3","3","509.2999999523163","","q","","true","0","15","up","down","1","w","0","0","1659373623732","","","false","60","15","0.23333333333333334","1","false"
"","html-keyboard-response","115","296074","0.0-6.0-1.16-0.16","025","21","f","1659373327867","q","q","Only if I get the answer right","You win money","As much time as I need","4","female","No","The speed is a bit too fast ","1","0","1","0","0","0","1","2","0","0","0","2","0","1","0","0","0","0","1","0","0","1","3","2","0","2","1","0","0","0","2","1","1","1","0","0","2","2","0","0","1","2","3","0","0","2","1","2","3","3","2","3","2","3","3","2","1","2","2","2","2","3","3","653.0999999046326","<div style=""color:green; font-size:75px;""><b>$1.00</b></div><br><br><br><br><table><tr><td><img src=static/images/oddball_down.png></td><td><img src=static/images/oddball_up.png></td><td><img src=static/images/oddball_down.png></td></tr></table>","87","1","","","","","","","","","","","","","","","","","",""
"","html-keyboard-response","116","296076","0.0-6.0-1.16-1.16","025","21","f","1659373327867","q","q","Only if I get the answer right","You win money","As much time as I need","4","female","No","The speed is a bit too fast ","1","0","1","0","0","0","1","2","0","0","0","2","0","1","0","0","0","0","1","0","0","1","3","2","0","2","1","0","0","0","2","1","1","1","0","0","2","2","0","0","1","2","3","0","0","2","1","2","3","3","2","3","2","3","3","2","1","2","2","2","2","3","3","653.0999999046326","","w","","true","0","16","down","up","1","w","1","0","1659373624388","","","false","60","16","0.23333333333333334","1","false"
"","html-keyboard-response","117","296658","0.0-6.0-1.17-0.17","025","21","f","1659373327867","q","q","Only if I get the answer right","You win money","As much time as I need","4","female","No","The speed is a bit too fast ","1","0","1","0","0","0","1","2","0","0","0","2","0","1","0","0","0","0","1","0","0","1","3","2","0","2","1","0","0","0","2","1","1","1","0","0","2","2","0","0","1","2","3","0","0","2","1","2","3","3","2","3","2","3","3","2","1","2","2","2","2","3","3","581.1999999284744","<div style=""color:green; font-size:75px;""><b>$1.00</b></div><br><br><br><br><table><tr><td><img src=static/images/oddball_up.png></td><td><img src=static/images/oddball_up.png></td><td><img src=static/images/oddball_down.png></td></tr></table>","69","1","","","","","","","","","","","","","","","","","",""
"","html-keyboard-response","118","296660","0.0-6.0-1.17-1.17","025","21","f","1659373327867","q","q","Only if I get the answer right","You win money","As much time as I need","4","female","No","The speed is a bit too fast ","1","0","1","0","0","0","1","2","0","0","0","2","0","1","0","0","0","0","1","0","0","1","3","2","0","2","1","0","0","0","2","1","1","1","0","0","2","2","0","0","1","2","3","0","0","2","1","2","3","3","2","3","2","3","3","2","1","2","2","2","2","3","3","581.1999999284744","","e","","true","0","17","up","down","2","e","1","0","1659373624972","","","false","60","17","0.25","1","false"
"","html-keyboard-response","119","297202","0.0-6.0-1.18-0.18","025","21","f","1659373327867","q","q","Only if I get the answer right","You win money","As much time as I need","4","female","No","The speed is a bit too fast ","1","0","1","0","0","0","1","2","0","0","0","2","0","1","0","0","0","0","1","0","0","1","3","2","0","2","1","0","0","0","2","1","1","1","0","0","2","2","0","0","1","2","3","0","0","2","1","2","3","3","2","3","2","3","3","2","1","2","2","2","2","3","3","541.1000000238419","<div style=""color:green; font-size:75px;""><b>$1.00</b></div><br><br><br><br><table><tr><td><img src=static/images/oddball_up.png></td><td><img src=static/images/oddball_up.png></td><td><img src=static/images/oddball_down.png></td></tr></table>","69","1","","","","","","","","","","","","","","","","","",""
"","html-keyboard-response","120","297204","0.0-6.0-1.18-1.18","025","21","f","1659373327867","q","q","Only if I get the answer right","You win money","As much time as I need","4","female","No","The speed is a bit too fast ","1","0","1","0","0","0","1","2","0","0","0","2","0","1","0","0","0","0","1","0","0","1","3","2","0","2","1","0","0","0","2","1","1","1","0","0","2","2","0","0","1","2","3","0","0","2","1","2","3","3","2","3","2","3","3","2","1","2","2","2","2","3","3","541.1000000238419","","e","","true","0","18","up","down","2","e","1","0","1659373625516","","","false","60","18","0.26666666666666666","1","false"
"","html-keyboard-response","121","297746","0.0-6.0-1.19-0.19","025","21","f","1659373327867","q","q","Only if I get the answer right","You win money","As much time as I need","4","female","No","The speed is a bit too fast ","1","0","1","0","0","0","1","2","0","0","0","2","0","1","0","0","0","0","1","0","0","1","3","2","0","2","1","0","0","0","2","1","1","1","0","0","2","2","0","0","1","2","3","0","0","2","1","2","3","3","2","3","2","3","3","2","1","2","2","2","2","3","3","541.1999999284744","<div style=""color:green; font-size:75px;""><b>$1.00</b></div><br><br><br><br><table><tr><td><img src=static/images/oddball_down.png></td><td><img src=static/images/oddball_down.png></td><td><img src=static/images/oddball_up.png></td></tr></table>","69","1","","","","","","","","","","","","","","","","","",""
"","html-keyboard-response","122","297748","0.0-6.0-1.19-1.19","025","21","f","1659373327867","q","q","Only if I get the answer right","You win money","As much time as I need","4","female","No","The speed is a bit too fast ","1","0","1","0","0","0","1","2","0","0","0","2","0","1","0","0","0","0","1","0","0","1","3","2","0","2","1","0","0","0","2","1","1","1","0","0","2","2","0","0","1","2","3","0","0","2","1","2","3","3","2","3","2","3","3","2","1","2","2","2","2","3","3","541.1999999284744","","e","","true","0","19","down","up","2","e","1","0","1659373626060","","","false","60","19","0.2833333333333333","1","false"
"","html-keyboard-response","123","298503","0.0-6.0-1.20-0.20","025","21","f","1659373327867","q","q","Only if I get the answer right","You win money","As much time as I need","4","female","No","The speed is a bit too fast ","1","0","1","0","0","0","1","2","0","0","0","2","0","1","0","0","0","0","1","0","0","1","3","2","0","2","1","0","0","0","2","1","1","1","0","0","2","2","0","0","1","2","3","0","0","2","1","2","3","3","2","3","2","3","3","2","1","2","2","2","2","3","3","null","<div style=""color:green; font-size:75px;""><b>$1.00</b></div><br><br><br><br><table><tr><td><img src=static/images/oddball_down.png></td><td><img src=static/images/oddball_up.png></td><td><img src=static/images/oddball_down.png></td></tr></table>","null","","","","","","","","","","","","","","","","","","",""
"","html-keyboard-response","124","298505","0.0-6.0-1.20-1.20","025","21","f","1659373327867","q","q","Only if I get the answer right","You win money","As much time as I need","4","female","No","The speed is a bit too fast ","1","0","1","0","0","0","1","2","0","0","0","2","0","1","0","0","0","0","1","0","0","1","3","2","0","2","1","0","0","0","2","1","1","1","0","0","2","2","0","0","1","2","3","0","0","2","1","2","3","3","2","3","2","3","3","2","1","2","2","2","2","3","3","null","","null","","true","0","20","down","up","1","w","0","0","1659373626817","","","false","60","20","0.3","1","true"
"","html-keyboard-response","125","298834","0.0-6.0-1.21-0.21","025","21","f","1659373327867","q","q","Only if I get the answer right","You win money","As much time as I need","4","female","No","The speed is a bit too fast ","1","0","1","0","0","0","1","2","0","0","0","2","0","1","0","0","0","0","1","0","0","1","3","2","0","2","1","0","0","0","2","1","1","1","0","0","2","2","0","0","1","2","3","0","0","2","1","2","3","3","2","3","2","3","3","2","1","2","2","2","2","3","3","328.39999997615814","<div style=""color:green; font-size:75px;""><b>$1.00</b></div><br><br><br><br><table><tr><td><img src=static/images/oddball_up.png></td><td><img src=static/images/oddball_down.png></td><td><img src=static/images/oddball_up.png></td></tr></table>","87","1","","","","","","","","","","","","","","","","","",""
"","html-keyboard-response","126","298836","0.0-6.0-1.21-1.21","025","21","f","1659373327867","q","q","Only if I get the answer right","You win money","As much time as I need","4","female","No","The speed is a bit too fast ","1","0","1","0","0","0","1","2","0","0","0","2","0","1","0","0","0","0","1","0","0","1","3","2","0","2","1","0","0","0","2","1","1","1","0","0","2","2","0","0","1","2","3","0","0","2","1","2","3","3","2","3","2","3","3","2","1","2","2","2","2","3","3","328.39999997615814","","w","","true","0","21","up","down","1","w","1","0","1659373627148","","","false","60","21","0.3","1","false"
"","html-keyboard-response","127","299538","0.0-6.0-1.22-0.22","025","21","f","1659373327867","q","q","Only if I get the answer right","You win money","As much time as I need","4","female","No","The speed is a bit too fast ","1","0","1","0","0","0","1","2","0","0","0","2","0","1","0","0","0","0","1","0","0","1","3","2","0","2","1","0","0","0","2","1","1","1","0","0","2","2","0","0","1","2","3","0","0","2","1","2","3","3","2","3","2","3","3","2","1","2","2","2","2","3","3","700.6000000238419","<div style=""color:green; font-size:75px;""><b>$1.00</b></div><br><br><br><br><table><tr><td><img src=static/images/oddball_up.png></td><td><img src=static/images/oddball_down.png></td><td><img src=static/images/oddball_down.png></td></tr></table>","81","1","","","","","","","","","","","","","","","","","",""
"","html-keyboard-response","128","299540","0.0-6.0-1.22-1.22","025","21","f","1659373327867","q","q","Only if I get the answer right","You win money","As much time as I need","4","female","No","The speed is a bit too fast ","1","0","1","0","0","0","1","2","0","0","0","2","0","1","0","0","0","0","1","0","0","1","3","2","0","2","1","0","0","0","2","1","1","1","0","0","2","2","0","0","1","2","3","0","0","2","1","2","3","3","2","3","2","3","3","2","1","2","2","2","2","3","3","700.6000000238419","","q","","true","0","22","down","up","0","q","1","0","1659373627852","","","false","60","22","0.31666666666666665","1","false"
"","html-keyboard-response","129","300018","0.0-6.0-1.23-0.23","025","21","f","1659373327867","q","q","Only if I get the answer right","You win money","As much time as I need","4","female","No","The speed is a bit too fast ","1","0","1","0","0","0","1","2","0","0","0","2","0","1","0","0","0","0","1","0","0","1","3","2","0","2","1","0","0","0","2","1","1","1","0","0","2","2","0","0","1","2","3","0","0","2","1","2","3","3","2","3","2","3","3","2","1","2","2","2","2","3","3","477.2999999523163","<div style=""color:green; font-size:75px;""><b>$1.00</b></div><br><br><br><br><table><tr><td><img src=static/images/oddball_down.png></td><td><img src=static/images/oddball_up.png></td><td><img src=static/images/oddball_up.png></td></tr></table>","81","1","","","","","","","","","","","","","","","","","",""
"","html-keyboard-response","130","300020","0.0-6.0-1.23-1.23","025","21","f","1659373327867","q","q","Only if I get the answer right","You win money","As much time as I need","4","female","No","The speed is a bit too fast ","1","0","1","0","0","0","1","2","0","0","0","2","0","1","0","0","0","0","1","0","0","1","3","2","0","2","1","0","0","0","2","1","1","1","0","0","2","2","0","0","1","2","3","0","0","2","1","2","3","3","2","3","2","3","3","2","1","2","2","2","2","3","3","477.2999999523163","","q","","true","0","23","up","down","0","q","1","0","1659373628332","","","false","60","23","0.3333333333333333","1","false"
"","html-keyboard-response","131","300562","0.0-6.0-1.24-0.24","025","21","f","1659373327867","q","q","Only if I get the answer right","You win money","As much time as I need","4","female","No","The speed is a bit too fast ","1","0","1","0","0","0","1","2","0","0","0","2","0","1","0","0","0","0","1","0","0","1","3","2","0","2","1","0","0","0","2","1","1","1","0","0","2","2","0","0","1","2","3","0","0","2","1","2","3","3","2","3","2","3","3","2","1","2","2","2","2","3","3","541.2999999523163","<div style=""color:green; font-size:75px;""><b>$1.00</b></div><br><br><br><br><table><tr><td><img src=static/images/oddball_down.png></td><td><img src=static/images/oddball_down.png></td><td><img src=static/images/oddball_up.png></td></tr></table>","69","1","","","","","","","","","","","","","","","","","",""
"","html-keyboard-response","132","300565","0.0-6.0-1.24-1.24","025","21","f","1659373327867","q","q","Only if I get the answer right","You win money","As much time as I need","4","female","No","The speed is a bit too fast ","1","0","1","0","0","0","1","2","0","0","0","2","0","1","0","0","0","0","1","0","0","1","3","2","0","2","1","0","0","0","2","1","1","1","0","0","2","2","0","0","1","2","3","0","0","2","1","2","3","3","2","3","2","3","3","2","1","2","2","2","2","3","3","541.2999999523163","","e","","true","0","24","down","up","2","e","1","0","1659373628877","","","false","60","24","0.35","1","false"
"","html-keyboard-response","133","301058","0.0-6.0-1.25-0.25","025","21","f","1659373327867","q","q","Only if I get the answer right","You win money","As much time as I need","4","female","No","The speed is a bit too fast ","1","0","1","0","0","0","1","2","0","0","0","2","0","1","0","0","0","0","1","0","0","1","3","2","0","2","1","0","0","0","2","1","1","1","0","0","2","2","0","0","1","2","3","0","0","2","1","2","3","3","2","3","2","3","3","2","1","2","2","2","2","3","3","491.90000009536743","<div style=""color:green; font-size:75px;""><b>$1.00</b></div><br><br><br><br><table><tr><td><img src=static/images/oddball_down.png></td><td><img src=static/images/oddball_up.png></td><td><img src=static/images/oddball_down.png></td></tr></table>","87","1","","","","","","","","","","","","","","","","","",""
"","html-keyboard-response","134","301060","0.0-6.0-1.25-1.25","025","21","f","1659373327867","q","q","Only if I get the answer right","You win money","As much time as I need","4","female","No","The speed is a bit too fast ","1","0","1","0","0","0","1","2","0","0","0","2","0","1","0","0","0","0","1","0","0","1","3","2","0","2","1","0","0","0","2","1","1","1","0","0","2","2","0","0","1","2","3","0","0","2","1","2","3","3","2","3","2","3","3","2","1","2","2","2","2","3","3","491.90000009536743","","w","","true","0","25","down","up","1","w","1","0","1659373629372","","","false","60","25","0.36666666666666664","1","false"
"","html-keyboard-response","135","301618","0.0-6.0-1.26-0.26","025","21","f","1659373327867","q","q","Only if I get the answer right","You win money","As much time as I need","4","female","No","The speed is a bit too fast ","1","0","1","0","0","0","1","2","0","0","0","2","0","1","0","0","0","0","1","0","0","1","3","2","0","2","1","0","0","0","2","1","1","1","0","0","2","2","0","0","1","2","3","0","0","2","1","2","3","3","2","3","2","3","3","2","1","2","2","2","2","3","3","557.2999999523163","<div style=""color:green; font-size:75px;""><b>$1.00</b></div><br><br><br><br><table><tr><td><img src=static/images/oddball_down.png></td><td><img src=static/images/oddball_up.png></td><td><img src=static/images/oddball_down.png></td></tr></table>","87","1","","","","","","","","","","","","","","","","","",""
"","html-keyboard-response","136","301620","0.0-6.0-1.26-1.26","025","21","f","1659373327867","q","q","Only if I get the answer right","You win money","As much time as I need","4","female","No","The speed is a bit too fast ","1","0","1","0","0","0","1","2","0","0","0","2","0","1","0","0","0","0","1","0","0","1","3","2","0","2","1","0","0","0","2","1","1","1","0","0","2","2","0","0","1","2","3","0","0","2","1","2","3","3","2","3","2","3","3","2","1","2","2","2","2","3","3","557.2999999523163","","w","","true","0","26","down","up","1","w","1","0","1659373629932","","","false","60","26","0.38333333333333336","1","false"
"","html-keyboard-response","137","302122","0.0-6.0-1.27-0.27","025","21","f","1659373327867","q","q","Only if I get the answer right","You win money","As much time as I need","4","female","No","The speed is a bit too fast ","1","0","1","0","0","0","1","2","0","0","0","2","0","1","0","0","0","0","1","0","0","1","3","2","0","2","1","0","0","0","2","1","1","1","0","0","2","2","0","0","1","2","3","0","0","2","1","2","3","3","2","3","2","3","3","2","1","2","2","2","2","3","3","501.10000002384186","<div style=""color:green; font-size:75px;""><b>$1.00</b></div><br><br><br><br><table><tr><td><img src=static/images/oddball_up.png></td><td><img src=static/images/oddball_up.png></td><td><img src=static/images/oddball_down.png></td></tr></table>","69","1","","","","","","","","","","","","","","","","","",""
"","html-keyboard-response","138","302124","0.0-6.0-1.27-1.27","025","21","f","1659373327867","q","q","Only if I get the answer right","You win money","As much time as I need","4","female","No","The speed is a bit too fast ","1","0","1","0","0","0","1","2","0","0","0","2","0","1","0","0","0","0","1","0","0","1","3","2","0","2","1","0","0","0","2","1","1","1","0","0","2","2","0","0","1","2","3","0","0","2","1","2","3","3","2","3","2","3","3","2","1","2","2","2","2","3","3","501.10000002384186","","e","","true","0","27","up","down","2","e","1","0","1659373630436","","","false","60","27","0.4","1","false"
"","html-keyboard-response","139","302626","0.0-6.0-1.28-0.28","025","21","f","1659373327867","q","q","Only if I get the answer right","You win money","As much time as I need","4","female","No","The speed is a bit too fast ","1","0","1","0","0","0","1","2","0","0","0","2","0","1","0","0","0","0","1","0","0","1","3","2","0","2","1","0","0","0","2","1","1","1","0","0","2","2","0","0","1","2","3","0","0","2","1","2","3","3","2","3","2","3","3","2","1","2","2","2","2","3","3","501.09999990463257","<div style=""color:green; font-size:75px;""><b>$1.00</b></div><br><br><br><br><table><tr><td><img src=static/images/oddball_up.png></td><td><img src=static/images/oddball_up.png></td><td><img src=static/images/oddball_down.png></td></tr></table>","69","1","","","","","","","","","","","","","","","","","",""
"","html-keyboard-response","140","302628","0.0-6.0-1.28-1.28","025","21","f","1659373327867","q","q","Only if I get the answer right","You win money","As much time as I need","4","female","No","The speed is a bit too fast ","1","0","1","0","0","0","1","2","0","0","0","2","0","1","0","0","0","0","1","0","0","1","3","2","0","2","1","0","0","0","2","1","1","1","0","0","2","2","0","0","1","2","3","0","0","2","1","2","3","3","2","3","2","3","3","2","1","2","2","2","2","3","3","501.09999990463257","","e","","true","0","28","up","down","2","e","1","0","1659373630940","","","false","60","28","0.4166666666666667","1","false"
"","html-keyboard-response","141","303106","0.0-6.0-1.29-0.29","025","21","f","1659373327867","q","q","Only if I get the answer right","You win money","As much time as I need","4","female","No","The speed is a bit too fast ","1","0","1","0","0","0","1","2","0","0","0","2","0","1","0","0","0","0","1","0","0","1","3","2","0","2","1","0","0","0","2","1","1","1","0","0","2","2","0","0","1","2","3","0","0","2","1","2","3","3","2","3","2","3","3","2","1","2","2","2","2","3","3","477.10000002384186","<div style=""color:green; font-size:75px;""><b>$1.00</b></div><br><br><br><br><table><tr><td><img src=static/images/oddball_down.png></td><td><img src=static/images/oddball_up.png></td><td><img src=static/images/oddball_up.png></td></tr></table>","81","1","","","","","","","","","","","","","","","","","",""
"","html-keyboard-response","142","303108","0.0-6.0-1.29-1.29","025","21","f","1659373327867","q","q","Only if I get the answer right","You win money","As much time as I need","4","female","No","The speed is a bit too fast ","1","0","1","0","0","0","1","2","0","0","0","2","0","1","0","0","0","0","1","0","0","1","3","2","0","2","1","0","0","0","2","1","1","1","0","0","2","2","0","0","1","2","3","0","0","2","1","2","3","3","2","3","2","3","3","2","1","2","2","2","2","3","3","477.10000002384186","","q","","true","0","29","up","down","0","q","1","0","1659373631420","","","false","60","29","0.43333333333333335","1","false"
"","html-keyboard-response","143","303610","0.0-6.0-1.30-0.30","025","21","f","1659373327867","q","q","Only if I get the answer right","You win money","As much time as I need","4","female","No","The speed is a bit too fast ","1","0","1","0","0","0","1","2","0","0","0","2","0","1","0","0","0","0","1","0","0","1","3","2","0","2","1","0","0","0","2","1","1","1","0","0","2","2","0","0","1","2","3","0","0","2","1","2","3","3","2","3","2","3","3","2","1","2","2","2","2","3","3","501.2999999523163","<div style=""color:green; font-size:75px;""><b>$1.00</b></div><br><br><br><br><table><tr><td><img src=static/images/oddball_up.png></td><td><img src=static/images/oddball_up.png></td><td><img src=static/images/oddball_down.png></td></tr></table>","69","1","","","","","","","","","","","","","","","","","",""
"","html-keyboard-response","144","303612","0.0-6.0-1.30-1.30","025","21","f","1659373327867","q","q","Only if I get the answer right","You win money","As much time as I need","4","female","No","The speed is a bit too fast ","1","0","1","0","0","0","1","2","0","0","0","2","0","1","0","0","0","0","1","0","0","1","3","2","0","2","1","0","0","0","2","1","1","1","0","0","2","2","0","0","1","2","3","0","0","2","1","2","3","3","2","3","2","3","3","2","1","2","2","2","2","3","3","501.2999999523163","","e","","true","0","30","up","down","2","e","1","0","1659373631924","","","false","60","30","0.45","1","false"
"","html-keyboard-response","145","304146","0.0-6.0-1.31-0.31","025","21","f","1659373327867","q","q","Only if I get the answer right","You win money","As much time as I need","4","female","No","The speed is a bit too fast ","1","0","1","0","0","0","1","2","0","0","0","2","0","1","0","0","0","0","1","0","0","1","3","2","0","2","1","0","0","0","2","1","1","1","0","0","2","2","0","0","1","2","3","0","0","2","1","2","3","3","2","3","2","3","3","2","1","2","2","2","2","3","3","532.7999999523163","<div style=""color:green; font-size:75px;""><b>$1.00</b></div><br><br><br><br><table><tr><td><img src=static/images/oddball_up.png></td><td><img src=static/images/oddball_up.png></td><td><img src=static/images/oddball_down.png></td></tr></table>","69","1","","","","","","","","","","","","","","","","","",""
"","html-keyboard-response","146","304148","0.0-6.0-1.31-1.31","025","21","f","1659373327867","q","q","Only if I get the answer right","You win money","As much time as I need","4","female","No","The speed is a bit too fast ","1","0","1","0","0","0","1","2","0","0","0","2","0","1","0","0","0","0","1","0","0","1","3","2","0","2","1","0","0","0","2","1","1","1","0","0","2","2","0","0","1","2","3","0","0","2","1","2","3","3","2","3","2","3","3","2","1","2","2","2","2","3","3","532.7999999523163","","e","","true","0","31","up","down","2","e","1","0","1659373632460","","","false","60","31","0.4666666666666667","1","false"
"","html-keyboard-response","147","304690","0.0-6.0-1.32-0.32","025","21","f","1659373327867","q","q","Only if I get the answer right","You win money","As much time as I need","4","female","No","The speed is a bit too fast ","1","0","1","0","0","0","1","2","0","0","0","2","0","1","0","0","0","0","1","0","0","1","3","2","0","2","1","0","0","0","2","1","1","1","0","0","2","2","0","0","1","2","3","0","0","2","1","2","3","3","2","3","2","3","3","2","1","2","2","2","2","3","3","540.8999999761581","<div style=""color:green; font-size:75px;""><b>$1.00</b></div><br><br><br><br><table><tr><td><img src=static/images/oddball_up.png></td><td><img src=static/images/oddball_down.png></td><td><img src=static/images/oddball_up.png></td></tr></table>","87","1","","","","","","","","","","","","","","","","","",""
