"success","trial_type","trial_index","time_elapsed","internal_node_id","subject","age","sex","date","deadline","instQ1","instQ2","instQ3","instQ4","instQ5","totalInstQ","gender","strategy","comments","DASS1_s","DASS2_a","DASS3_d","DASS4_a","DASS5_d","DASS6_s","DASS7_a","DASS8_s","DASS9_a","DASS10_d","DASS11_s","DASS12_s","DASS13_d","DASS14_s","DASS15_a","DASS16_d","DASS17_d","DASS18_s","DASS19_a","DASS20_a","DASS21_d","BB1","BB2","BB3","BB4","BB5","BB6","BB7","BB8","BB9","BB10","BB11","BB12","BB13","BB14","BB15","BB16","BB17","BB18","BB19","BB20","BB21","BB22","BB23","BB24","NFC1","NFC2","NFC3","NFC4","NFC5","NFC6","NFC7","NFC8","NFC9","NFC10","NFC11","NFC12","NFC13","NFC14","NFC15","NFC16","NFC17","NFC18","rt","stimulus","key_press","npress","isDataTrial","block","trialinblock","common","odd","oddidx","correct_ans","accuracy","totalTokens","timestamp","responses","question_order","showprog","blocklen","trial","progress","reward","timedout"
"true","fullscreen",0,27758,"0.0-0.0",87,19,"f",1666810671367,750,"q","q","Only if I get the answer right","You win money","A fixed time limit",5,"female","I was mostly looking in the middle","no",1,0,0,0,0,1,1,2,1,0,1,1,0,0,0,0,0,0,2,1,0,1,2,2,0,0,0,0,0,2,2,0,1,0,0,1,0,0,1,0,0,2,2,0,0,0,0,2,2,1,1,2,1,3,2,1,2,1,2,1,4,1,2,"","","","","","","","","","","","","","","","","","","","","",""
"","image-keyboard-response",1,101325,"0.0-1.0-0.0",87,19,"f",1666810671367,750,"q","q","Only if I get the answer right","You win money","A fixed time limit",5,"female","I was mostly looking in the middle","no",1,0,0,0,0,1,1,2,1,0,1,1,0,0,0,0,0,0,2,1,0,1,2,2,0,0,0,0,0,2,2,0,1,0,0,1,0,0,1,0,0,2,2,0,0,0,0,2,2,1,1,2,1,3,2,1,2,1,2,1,4,1,2,"73565.09999990463","static/images/instructions/Slide1.png","39","","","","","","","","","","","","","","","","","","",""
"","image-keyboard-response",2,106975,"0.0-1.1-0.1",87,19,"f",1666810671367,750,"q","q","Only if I get the answer right","You win money","A fixed time limit",5,"female","I was mostly looking in the middle","no",1,0,0,0,0,1,1,2,1,0,1,1,0,0,0,0,0,0,2,1,0,1,2,2,0,0,0,0,0,2,2,0,1,0,0,1,0,0,1,0,0,2,2,0,0,0,0,2,2,1,1,2,1,3,2,1,2,1,2,1,4,1,2,"5648.299999952316","static/images/instructions/Slide2.png","39","","","","","","","","","","","","","","","","","","",""
"","image-keyboard-response",3,114391,"0.0-1.2-0.2",87,19,"f",1666810671367,750,"q","q","Only if I get the answer right","You win money","A fixed time limit",5,"female","I was mostly looking in the middle","no",1,0,0,0,0,1,1,2,1,0,1,1,0,0,0,0,0,0,2,1,0,1,2,2,0,0,0,0,0,2,2,0,1,0,0,1,0,0,1,0,0,2,2,0,0,0,0,2,2,1,1,2,1,3,2,1,2,1,2,1,4,1,2,"7415.700000047684","static/images/instructions/Slide3.png","39","","","","","","","","","","","","","","","","","","",""
"","image-keyboard-response",4,116495,"0.0-1.3-0.3",87,19,"f",1666810671367,750,"q","q","Only if I get the answer right","You win money","A fixed time limit",5,"female","I was mostly looking in the middle","no",1,0,0,0,0,1,1,2,1,0,1,1,0,0,0,0,0,0,2,1,0,1,2,2,0,0,0,0,0,2,2,0,1,0,0,1,0,0,1,0,0,2,2,0,0,0,0,2,2,1,1,2,1,3,2,1,2,1,2,1,4,1,2,"2103","static/images/instructions/Slide4.png","39","","","","","","","","","","","","","","","","","","",""
"","image-keyboard-response",5,118375,"0.0-1.4-0.4",87,19,"f",1666810671367,750,"q","q","Only if I get the answer right","You win money","A fixed time limit",5,"female","I was mostly looking in the middle","no",1,0,0,0,0,1,1,2,1,0,1,1,0,0,0,0,0,0,2,1,0,1,2,2,0,0,0,0,0,2,2,0,1,0,0,1,0,0,1,0,0,2,2,0,0,0,0,2,2,1,1,2,1,3,2,1,2,1,2,1,4,1,2,"1864.5999999046326","static/images/instructions/Slide5.png","39","","","","","","","","","","","","","","","","","","",""
"","image-keyboard-response",6,119528,"0.0-1.5-0.5",87,19,"f",1666810671367,750,"q","q","Only if I get the answer right","You win money","A fixed time limit",5,"female","I was mostly looking in the middle","no",1,0,0,0,0,1,1,2,1,0,1,1,0,0,0,0,0,0,2,1,0,1,2,2,0,0,0,0,0,2,2,0,1,0,0,1,0,0,1,0,0,2,2,0,0,0,0,2,2,1,1,2,1,3,2,1,2,1,2,1,4,1,2,"1151.2999999523163","static/images/instructions/Slide6.png","39","","","","","","","","","","","","","","","","","","",""
"","image-keyboard-response",7,150815,"0.0-1.6-0.6",87,19,"f",1666810671367,750,"q","q","Only if I get the answer right","You win money","A fixed time limit",5,"female","I was mostly looking in the middle","no",1,0,0,0,0,1,1,2,1,0,1,1,0,0,0,0,0,0,2,1,0,1,2,2,0,0,0,0,0,2,2,0,1,0,0,1,0,0,1,0,0,2,2,0,0,0,0,2,2,1,1,2,1,3,2,1,2,1,2,1,4,1,2,"31286.700000047684","static/images/instructions/Slide7.png","39","","","","","","","","","","","","","","","","","","",""
"","html-keyboard-response",8,152783,"0.0-2.0-0.0",87,19,"f",1666810671367,750,"q","q","Only if I get the answer right","You win money","A fixed time limit",5,"female","I was mostly looking in the middle","no",1,0,0,0,0,1,1,2,1,0,1,1,0,0,0,0,0,0,2,1,0,1,2,2,0,0,0,0,0,2,2,0,1,0,0,1,0,0,1,0,0,2,2,0,0,0,0,2,2,1,1,2,1,3,2,1,2,1,2,1,4,1,2,"1930.7999999523163","<br><br><br><br><table><tr><td><img src=static/images/oddball_down.png></td><td><img src=static/images/oddball_up.png></td><td><img src=static/images/oddball_up.png></td></tr></table>","81","1","","","","","","","","","","","","","","","","","",""
"","html-keyboard-response",9,155313,"0.0-2.0-1.0",87,19,"f",1666810671367,750,"q","q","Only if I get the answer right","You win money","A fixed time limit",5,"female","I was mostly looking in the middle","no",1,0,0,0,0,1,1,2,1,0,1,1,0,0,0,0,0,0,2,1,0,1,2,2,0,0,0,0,0,2,2,0,1,0,0,1,0,0,1,0,0,2,2,0,0,0,0,2,2,1,1,2,1,3,2,1,2,1,2,1,4,1,2,"null","<div style=""font-size:75px;""><b>Correct</b></div>","null","","","","","","","","","","","","","","","","","","",""
"","html-keyboard-response",10,156333,"0.0-2.0-2.0",87,19,"f",1666810671367,750,"q","q","Only if I get the answer right","You win money","A fixed time limit",5,"female","I was mostly looking in the middle","no",1,0,0,0,0,1,1,2,1,0,1,1,0,0,0,0,0,0,2,1,0,1,2,2,0,0,0,0,0,2,2,0,1,0,0,1,0,0,1,0,0,2,2,0,0,0,0,2,2,1,1,2,1,3,2,1,2,1,2,1,4,1,2,"1930.7999999523163","","q","","true","practice","0","up","down","0","q","1","0","1666810828156","","","","","","","",""
"","html-keyboard-response",11,157191,"0.0-2.1-0.1",87,19,"f",1666810671367,750,"q","q","Only if I get the answer right","You win money","A fixed time limit",5,"female","I was mostly looking in the middle","no",1,0,0,0,0,1,1,2,1,0,1,1,0,0,0,0,0,0,2,1,0,1,2,2,0,0,0,0,0,2,2,0,1,0,0,1,0,0,1,0,0,2,2,0,0,0,0,2,2,1,1,2,1,3,2,1,2,1,2,1,4,1,2,"857.5999999046326","<br><br><br><br><table><tr><td><img src=static/images/oddball_up.png></td><td><img src=static/images/oddball_down.png></td><td><img src=static/images/oddball_down.png></td></tr></table>","81","1","","","","","","","","","","","","","","","","","",""
"","html-keyboard-response",12,159698,"0.0-2.1-1.1",87,19,"f",1666810671367,750,"q","q","Only if I get the answer right","You win money","A fixed time limit",5,"female","I was mostly looking in the middle","no",1,0,0,0,0,1,1,2,1,0,1,1,0,0,0,0,0,0,2,1,0,1,2,2,0,0,0,0,0,2,2,0,1,0,0,1,0,0,1,0,0,2,2,0,0,0,0,2,2,1,1,2,1,3,2,1,2,1,2,1,4,1,2,"null","<div style=""font-size:75px;""><b>Correct</b></div>","null","","","","","","","","","","","","","","","","","","",""
"","html-keyboard-response",13,160710,"0.0-2.1-2.1",87,19,"f",1666810671367,750,"q","q","Only if I get the answer right","You win money","A fixed time limit",5,"female","I was mostly looking in the middle","no",1,0,0,0,0,1,1,2,1,0,1,1,0,0,0,0,0,0,2,1,0,1,2,2,0,0,0,0,0,2,2,0,1,0,0,1,0,0,1,0,0,2,2,0,0,0,0,2,2,1,1,2,1,3,2,1,2,1,2,1,4,1,2,"857.5999999046326","","q","","true","practice","1","down","up","0","q","1","0","1666810832533","","","","","","","",""
"","html-keyboard-response",14,161211,"0.0-2.2-0.2",87,19,"f",1666810671367,750,"q","q","Only if I get the answer right","You win money","A fixed time limit",5,"female","I was mostly looking in the middle","no",1,0,0,0,0,1,1,2,1,0,1,1,0,0,0,0,0,0,2,1,0,1,2,2,0,0,0,0,0,2,2,0,1,0,0,1,0,0,1,0,0,2,2,0,0,0,0,2,2,1,1,2,1,3,2,1,2,1,2,1,4,1,2,"500.09999990463257","<br><br><br><br><table><tr><td><img src=static/images/oddball_up.png></td><td><img src=static/images/oddball_down.png></td><td><img src=static/images/oddball_up.png></td></tr></table>","87","1","","","","","","","","","","","","","","","","","",""
"","html-keyboard-response",15,163724,"0.0-2.2-1.2",87,19,"f",1666810671367,750,"q","q","Only if I get the answer right","You win money","A fixed time limit",5,"female","I was mostly looking in the middle","no",1,0,0,0,0,1,1,2,1,0,1,1,0,0,0,0,0,0,2,1,0,1,2,2,0,0,0,0,0,2,2,0,1,0,0,1,0,0,1,0,0,2,2,0,0,0,0,2,2,1,1,2,1,3,2,1,2,1,2,1,4,1,2,"null","<div style=""font-size:75px;""><b>Correct</b></div>","null","","","","","","","","","","","","","","","","","","",""
"","html-keyboard-response",16,164736,"0.0-2.2-2.2",87,19,"f",1666810671367,750,"q","q","Only if I get the answer right","You win money","A fixed time limit",5,"female","I was mostly looking in the middle","no",1,0,0,0,0,1,1,2,1,0,1,1,0,0,0,0,0,0,2,1,0,1,2,2,0,0,0,0,0,2,2,0,1,0,0,1,0,0,1,0,0,2,2,0,0,0,0,2,2,1,1,2,1,3,2,1,2,1,2,1,4,1,2,"500.09999990463257","","w","","true","practice","2","up","down","1","w","1","0","1666810836559","","","","","","","",""
"","html-keyboard-response",17,165304,"0.0-2.3-0.3",87,19,"f",1666810671367,750,"q","q","Only if I get the answer right","You win money","A fixed time limit",5,"female","I was mostly looking in the middle","no",1,0,0,0,0,1,1,2,1,0,1,1,0,0,0,0,0,0,2,1,0,1,2,2,0,0,0,0,0,2,2,0,1,0,0,1,0,0,1,0,0,2,2,0,0,0,0,2,2,1,1,2,1,3,2,1,2,1,2,1,4,1,2,"566.7000000476837","<br><br><br><br><table><tr><td><img src=static/images/oddball_up.png></td><td><img src=static/images/oddball_down.png></td><td><img src=static/images/oddball_down.png></td></tr></table>","81","1","","","","","","","","","","","","","","","","","",""
"","html-keyboard-response",18,167819,"0.0-2.3-1.3",87,19,"f",1666810671367,750,"q","q","Only if I get the answer right","You win money","A fixed time limit",5,"female","I was mostly looking in the middle","no",1,0,0,0,0,1,1,2,1,0,1,1,0,0,0,0,0,0,2,1,0,1,2,2,0,0,0,0,0,2,2,0,1,0,0,1,0,0,1,0,0,2,2,0,0,0,0,2,2,1,1,2,1,3,2,1,2,1,2,1,4,1,2,"null","<div style=""font-size:75px;""><b>Correct</b></div>","null","","","","","","","","","","","","","","","","","","",""
"","html-keyboard-response",19,168849,"0.0-2.3-2.3",87,19,"f",1666810671367,750,"q","q","Only if I get the answer right","You win money","A fixed time limit",5,"female","I was mostly looking in the middle","no",1,0,0,0,0,1,1,2,1,0,1,1,0,0,0,0,0,0,2,1,0,1,2,2,0,0,0,0,0,2,2,0,1,0,0,1,0,0,1,0,0,2,2,0,0,0,0,2,2,1,1,2,1,3,2,1,2,1,2,1,4,1,2,"566.7000000476837","","q","","true","practice","3","down","up","0","q","1","0","1666810840672","","","","","","","",""
"","html-keyboard-response",20,169368,"0.0-2.4-0.4",87,19,"f",1666810671367,750,"q","q","Only if I get the answer right","You win money","A fixed time limit",5,"female","I was mostly looking in the middle","no",1,0,0,0,0,1,1,2,1,0,1,1,0,0,0,0,0,0,2,1,0,1,2,2,0,0,0,0,0,2,2,0,1,0,0,1,0,0,1,0,0,2,2,0,0,0,0,2,2,1,1,2,1,3,2,1,2,1,2,1,4,1,2,"517.7000000476837","<br><br><br><br><table><tr><td><img src=static/images/oddball_up.png></td><td><img src=static/images/oddball_down.png></td><td><img src=static/images/oddball_down.png></td></tr></table>","81","1","","","","","","","","","","","","","","","","","",""
"","html-keyboard-response",21,171870,"0.0-2.4-1.4",87,19,"f",1666810671367,750,"q","q","Only if I get the answer right","You win money","A fixed time limit",5,"female","I was mostly looking in the middle","no",1,0,0,0,0,1,1,2,1,0,1,1,0,0,0,0,0,0,2,1,0,1,2,2,0,0,0,0,0,2,2,0,1,0,0,1,0,0,1,0,0,2,2,0,0,0,0,2,2,1,1,2,1,3,2,1,2,1,2,1,4,1,2,"null","<div style=""font-size:75px;""><b>Correct</b></div>","null","","","","","","","","","","","","","","","","","","",""
"","html-keyboard-response",22,172886,"0.0-2.4-2.4",87,19,"f",1666810671367,750,"q","q","Only if I get the answer right","You win money","A fixed time limit",5,"female","I was mostly looking in the middle","no",1,0,0,0,0,1,1,2,1,0,1,1,0,0,0,0,0,0,2,1,0,1,2,2,0,0,0,0,0,2,2,0,1,0,0,1,0,0,1,0,0,2,2,0,0,0,0,2,2,1,1,2,1,3,2,1,2,1,2,1,4,1,2,"517.7000000476837","","q","","true","practice","4","down","up","0","q","1","0","1666810844709","","","","","","","",""
"","html-keyboard-response",23,173431,"0.0-2.5-0.5",87,19,"f",1666810671367,750,"q","q","Only if I get the answer right","You win money","A fixed time limit",5,"female","I was mostly looking in the middle","no",1,0,0,0,0,1,1,2,1,0,1,1,0,0,0,0,0,0,2,1,0,1,2,2,0,0,0,0,0,2,2,0,1,0,0,1,0,0,1,0,0,2,2,0,0,0,0,2,2,1,1,2,1,3,2,1,2,1,2,1,4,1,2,"544.7999999523163","<br><br><br><br><table><tr><td><img src=static/images/oddball_up.png></td><td><img src=static/images/oddball_down.png></td><td><img src=static/images/oddball_up.png></td></tr></table>","87","1","","","","","","","","","","","","","","","","","",""
"","html-keyboard-response",24,175934,"0.0-2.5-1.5",87,19,"f",1666810671367,750,"q","q","Only if I get the answer right","You win money","A fixed time limit",5,"female","I was mostly looking in the middle","no",1,0,0,0,0,1,1,2,1,0,1,1,0,0,0,0,0,0,2,1,0,1,2,2,0,0,0,0,0,2,2,0,1,0,0,1,0,0,1,0,0,2,2,0,0,0,0,2,2,1,1,2,1,3,2,1,2,1,2,1,4,1,2,"null","<div style=""font-size:75px;""><b>Correct</b></div>","null","","","","","","","","","","","","","","","","","","",""
"","html-keyboard-response",25,177010,"0.0-2.5-2.5",87,19,"f",1666810671367,750,"q","q","Only if I get the answer right","You win money","A fixed time limit",5,"female","I was mostly looking in the middle","no",1,0,0,0,0,1,1,2,1,0,1,1,0,0,0,0,0,0,2,1,0,1,2,2,0,0,0,0,0,2,2,0,1,0,0,1,0,0,1,0,0,2,2,0,0,0,0,2,2,1,1,2,1,3,2,1,2,1,2,1,4,1,2,"544.7999999523163","","w","","true","practice","5","up","down","1","w","1","0","1666810848833","","","","","","","",""
"","html-keyboard-response",26,177687,"0.0-2.6-0.6",87,19,"f",1666810671367,750,"q","q","Only if I get the answer right","You win money","A fixed time limit",5,"female","I was mostly looking in the middle","no",1,0,0,0,0,1,1,2,1,0,1,1,0,0,0,0,0,0,2,1,0,1,2,2,0,0,0,0,0,2,2,0,1,0,0,1,0,0,1,0,0,2,2,0,0,0,0,2,2,1,1,2,1,3,2,1,2,1,2,1,4,1,2,"667.5","<br><br><br><br><table><tr><td><img src=static/images/oddball_up.png></td><td><img src=static/images/oddball_down.png></td><td><img src=static/images/oddball_up.png></td></tr></table>","87","1","","","","","","","","","","","","","","","","","",""
"","html-keyboard-response",27,180188,"0.0-2.6-1.6",87,19,"f",1666810671367,750,"q","q","Only if I get the answer right","You win money","A fixed time limit",5,"female","I was mostly looking in the middle","no",1,0,0,0,0,1,1,2,1,0,1,1,0,0,0,0,0,0,2,1,0,1,2,2,0,0,0,0,0,2,2,0,1,0,0,1,0,0,1,0,0,2,2,0,0,0,0,2,2,1,1,2,1,3,2,1,2,1,2,1,4,1,2,"null","<div style=""font-size:75px;""><b>Correct</b></div>","null","","","","","","","","","","","","","","","","","","",""
"","html-keyboard-response",28,181198,"0.0-2.6-2.6",87,19,"f",1666810671367,750,"q","q","Only if I get the answer right","You win money","A fixed time limit",5,"female","I was mostly looking in the middle","no",1,0,0,0,0,1,1,2,1,0,1,1,0,0,0,0,0,0,2,1,0,1,2,2,0,0,0,0,0,2,2,0,1,0,0,1,0,0,1,0,0,2,2,0,0,0,0,2,2,1,1,2,1,3,2,1,2,1,2,1,4,1,2,"667.5","","w","","true","practice","6","up","down","1","w","1","0","1666810853022","","","","","","","",""
"","html-keyboard-response",29,181608,"0.0-2.7-0.7",87,19,"f",1666810671367,750,"q","q","Only if I get the answer right","You win money","A fixed time limit",5,"female","I was mostly looking in the middle","no",1,0,0,0,0,1,1,2,1,0,1,1,0,0,0,0,0,0,2,1,0,1,2,2,0,0,0,0,0,2,2,0,1,0,0,1,0,0,1,0,0,2,2,0,0,0,0,2,2,1,1,2,1,3,2,1,2,1,2,1,4,1,2,"408.59999990463257","<br><br><br><br><table><tr><td><img src=static/images/oddball_up.png></td><td><img src=static/images/oddball_down.png></td><td><img src=static/images/oddball_up.png></td></tr></table>","87","1","","","","","","","","","","","","","","","","","",""
"","html-keyboard-response",30,184109,"0.0-2.7-1.7",87,19,"f",1666810671367,750,"q","q","Only if I get the answer right","You win money","A fixed time limit",5,"female","I was mostly looking in the middle","no",1,0,0,0,0,1,1,2,1,0,1,1,0,0,0,0,0,0,2,1,0,1,2,2,0,0,0,0,0,2,2,0,1,0,0,1,0,0,1,0,0,2,2,0,0,0,0,2,2,1,1,2,1,3,2,1,2,1,2,1,4,1,2,"null","<div style=""font-size:75px;""><b>Correct</b></div>","null","","","","","","","","","","","","","","","","","","",""
"","html-keyboard-response",31,185122,"0.0-2.7-2.7",87,19,"f",1666810671367,750,"q","q","Only if I get the answer right","You win money","A fixed time limit",5,"female","I was mostly looking in the middle","no",1,0,0,0,0,1,1,2,1,0,1,1,0,0,0,0,0,0,2,1,0,1,2,2,0,0,0,0,0,2,2,0,1,0,0,1,0,0,1,0,0,2,2,0,0,0,0,2,2,1,1,2,1,3,2,1,2,1,2,1,4,1,2,"408.59999990463257","","w","","true","practice","7","up","down","1","w","1","0","1666810856945","","","","","","","",""
"","html-keyboard-response",32,185624,"0.0-2.8-0.8",87,19,"f",1666810671367,750,"q","q","Only if I get the answer right","You win money","A fixed time limit",5,"female","I was mostly looking in the middle","no",1,0,0,0,0,1,1,2,1,0,1,1,0,0,0,0,0,0,2,1,0,1,2,2,0,0,0,0,0,2,2,0,1,0,0,1,0,0,1,0,0,2,2,0,0,0,0,2,2,1,1,2,1,3,2,1,2,1,2,1,4,1,2,"501.89999985694885","<br><br><br><br><table><tr><td><img src=static/images/oddball_down.png></td><td><img src=static/images/oddball_down.png></td><td><img src=static/images/oddball_up.png></td></tr></table>","69","1","","","","","","","","","","","","","","","","","",""
"","html-keyboard-response",33,188126,"0.0-2.8-1.8",87,19,"f",1666810671367,750,"q","q","Only if I get the answer right","You win money","A fixed time limit",5,"female","I was mostly looking in the middle","no",1,0,0,0,0,1,1,2,1,0,1,1,0,0,0,0,0,0,2,1,0,1,2,2,0,0,0,0,0,2,2,0,1,0,0,1,0,0,1,0,0,2,2,0,0,0,0,2,2,1,1,2,1,3,2,1,2,1,2,1,4,1,2,"null","<div style=""font-size:75px;""><b>Correct</b></div>","null","","","","","","","","","","","","","","","","","","",""
"","html-keyboard-response",34,189135,"0.0-2.8-2.8",87,19,"f",1666810671367,750,"q","q","Only if I get the answer right","You win money","A fixed time limit",5,"female","I was mostly looking in the middle","no",1,0,0,0,0,1,1,2,1,0,1,1,0,0,0,0,0,0,2,1,0,1,2,2,0,0,0,0,0,2,2,0,1,0,0,1,0,0,1,0,0,2,2,0,0,0,0,2,2,1,1,2,1,3,2,1,2,1,2,1,4,1,2,"501.89999985694885","","e","","true","practice","8","down","up","2","e","1","0","1666810860958","","","","","","","",""
"","html-keyboard-response",35,189832,"0.0-2.9-0.9",87,19,"f",1666810671367,750,"q","q","Only if I get the answer right","You win money","A fixed time limit",5,"female","I was mostly looking in the middle","no",1,0,0,0,0,1,1,2,1,0,1,1,0,0,0,0,0,0,2,1,0,1,2,2,0,0,0,0,0,2,2,0,1,0,0,1,0,0,1,0,0,2,2,0,0,0,0,2,2,1,1,2,1,3,2,1,2,1,2,1,4,1,2,"667","<br><br><br><br><table><tr><td><img src=static/images/oddball_down.png></td><td><img src=static/images/oddball_down.png></td><td><img src=static/images/oddball_up.png></td></tr></table>","69","1","","","","","","","","","","","","","","","","","",""
"","html-keyboard-response",36,192349,"0.0-2.9-1.9",87,19,"f",1666810671367,750,"q","q","Only if I get the answer right","You win money","A fixed time limit",5,"female","I was mostly looking in the middle","no",1,0,0,0,0,1,1,2,1,0,1,1,0,0,0,0,0,0,2,1,0,1,2,2,0,0,0,0,0,2,2,0,1,0,0,1,0,0,1,0,0,2,2,0,0,0,0,2,2,1,1,2,1,3,2,1,2,1,2,1,4,1,2,"null","<div style=""font-size:75px;""><b>Correct</b></div>","null","","","","","","","","","","","","","","","","","","",""
"","html-keyboard-response",37,193355,"0.0-2.9-2.9",87,19,"f",1666810671367,750,"q","q","Only if I get the answer right","You win money","A fixed time limit",5,"female","I was mostly looking in the middle","no",1,0,0,0,0,1,1,2,1,0,1,1,0,0,0,0,0,0,2,1,0,1,2,2,0,0,0,0,0,2,2,0,1,0,0,1,0,0,1,0,0,2,2,0,0,0,0,2,2,1,1,2,1,3,2,1,2,1,2,1,4,1,2,"667","","e","","true","practice","9","down","up","2","e","1","0","1666810865178","","","","","","","",""
"","html-keyboard-response",38,193840,"0.0-2.10-0.10",87,19,"f",1666810671367,750,"q","q","Only if I get the answer right","You win money","A fixed time limit",5,"female","I was mostly looking in the middle","no",1,0,0,0,0,1,1,2,1,0,1,1,0,0,0,0,0,0,2,1,0,1,2,2,0,0,0,0,0,2,2,0,1,0,0,1,0,0,1,0,0,2,2,0,0,0,0,2,2,1,1,2,1,3,2,1,2,1,2,1,4,1,2,"484.09999990463257","<br><br><br><br><table><tr><td><img src=static/images/oddball_down.png></td><td><img src=static/images/oddball_up.png></td><td><img src=static/images/oddball_down.png></td></tr></table>","87","1","","","","","","","","","","","","","","","","","",""
"","html-keyboard-response",39,196349,"0.0-2.10-1.10",87,19,"f",1666810671367,750,"q","q","Only if I get the answer right","You win money","A fixed time limit",5,"female","I was mostly looking in the middle","no",1,0,0,0,0,1,1,2,1,0,1,1,0,0,0,0,0,0,2,1,0,1,2,2,0,0,0,0,0,2,2,0,1,0,0,1,0,0,1,0,0,2,2,0,0,0,0,2,2,1,1,2,1,3,2,1,2,1,2,1,4,1,2,"null","<div style=""font-size:75px;""><b>Correct</b></div>","null","","","","","","","","","","","","","","","","","","",""
"","html-keyboard-response",40,197350,"0.0-2.10-2.10",87,19,"f",1666810671367,750,"q","q","Only if I get the answer right","You win money","A fixed time limit",5,"female","I was mostly looking in the middle","no",1,0,0,0,0,1,1,2,1,0,1,1,0,0,0,0,0,0,2,1,0,1,2,2,0,0,0,0,0,2,2,0,1,0,0,1,0,0,1,0,0,2,2,0,0,0,0,2,2,1,1,2,1,3,2,1,2,1,2,1,4,1,2,"484.09999990463257","","w","","true","practice","10","down","up","1","w","1","0","1666810869173","","","","","","","",""
"","html-keyboard-response",41,197792,"0.0-2.11-0.11",87,19,"f",1666810671367,750,"q","q","Only if I get the answer right","You win money","A fixed time limit",5,"female","I was mostly looking in the middle","no",1,0,0,0,0,1,1,2,1,0,1,1,0,0,0,0,0,0,2,1,0,1,2,2,0,0,0,0,0,2,2,0,1,0,0,1,0,0,1,0,0,2,2,0,0,0,0,2,2,1,1,2,1,3,2,1,2,1,2,1,4,1,2,"441.2000000476837","<br><br><br><br><table><tr><td><img src=static/images/oddball_up.png></td><td><img src=static/images/oddball_down.png></td><td><img src=static/images/oddball_up.png></td></tr></table>","87","1","","","","","","","","","","","","","","","","","",""
"","html-keyboard-response",42,200308,"0.0-2.11-1.11",87,19,"f",1666810671367,750,"q","q","Only if I get the answer right","You win money","A fixed time limit",5,"female","I was mostly looking in the middle","no",1,0,0,0,0,1,1,2,1,0,1,1,0,0,0,0,0,0,2,1,0,1,2,2,0,0,0,0,0,2,2,0,1,0,0,1,0,0,1,0,0,2,2,0,0,0,0,2,2,1,1,2,1,3,2,1,2,1,2,1,4,1,2,"null","<div style=""font-size:75px;""><b>Correct</b></div>","null","","","","","","","","","","","","","","","","","","",""
"","html-keyboard-response",43,201322,"0.0-2.11-2.11",87,19,"f",1666810671367,750,"q","q","Only if I get the answer right","You win money","A fixed time limit",5,"female","I was mostly looking in the middle","no",1,0,0,0,0,1,1,2,1,0,1,1,0,0,0,0,0,0,2,1,0,1,2,2,0,0,0,0,0,2,2,0,1,0,0,1,0,0,1,0,0,2,2,0,0,0,0,2,2,1,1,2,1,3,2,1,2,1,2,1,4,1,2,"441.2000000476837","","w","","true","practice","11","up","down","1","w","1","0","1666810873145","","","","","","","",""
"","html-keyboard-response",44,201768,"0.0-2.12-0.12",87,19,"f",1666810671367,750,"q","q","Only if I get the answer right","You win money","A fixed time limit",5,"female","I was mostly looking in the middle","no",1,0,0,0,0,1,1,2,1,0,1,1,0,0,0,0,0,0,2,1,0,1,2,2,0,0,0,0,0,2,2,0,1,0,0,1,0,0,1,0,0,2,2,0,0,0,0,2,2,1,1,2,1,3,2,1,2,1,2,1,4,1,2,"445.7999999523163","<br><br><br><br><table><tr><td><img src=static/images/oddball_down.png></td><td><img src=static/images/oddball_up.png></td><td><img src=static/images/oddball_down.png></td></tr></table>","87","1","","","","","","","","","","","","","","","","","",""
"","html-keyboard-response",45,204269,"0.0-2.12-1.12",87,19,"f",1666810671367,750,"q","q","Only if I get the answer right","You win money","A fixed time limit",5,"female","I was mostly looking in the middle","no",1,0,0,0,0,1,1,2,1,0,1,1,0,0,0,0,0,0,2,1,0,1,2,2,0,0,0,0,0,2,2,0,1,0,0,1,0,0,1,0,0,2,2,0,0,0,0,2,2,1,1,2,1,3,2,1,2,1,2,1,4,1,2,"null","<div style=""font-size:75px;""><b>Correct</b></div>","null","","","","","","","","","","","","","","","","","","",""
"","html-keyboard-response",46,205284,"0.0-2.12-2.12",87,19,"f",1666810671367,750,"q","q","Only if I get the answer right","You win money","A fixed time limit",5,"female","I was mostly looking in the middle","no",1,0,0,0,0,1,1,2,1,0,1,1,0,0,0,0,0,0,2,1,0,1,2,2,0,0,0,0,0,2,2,0,1,0,0,1,0,0,1,0,0,2,2,0,0,0,0,2,2,1,1,2,1,3,2,1,2,1,2,1,4,1,2,"445.7999999523163","","w","","true","practice","12","down","up","1","w","1","0","1666810877107","","","","","","","",""
"","html-keyboard-response",47,205783,"0.0-2.13-0.13",87,19,"f",1666810671367,750,"q","q","Only if I get the answer right","You win money","A fixed time limit",5,"female","I was mostly looking in the middle","no",1,0,0,0,0,1,1,2,1,0,1,1,0,0,0,0,0,0,2,1,0,1,2,2,0,0,0,0,0,2,2,0,1,0,0,1,0,0,1,0,0,2,2,0,0,0,0,2,2,1,1,2,1,3,2,1,2,1,2,1,4,1,2,"499.09999990463257","<br><br><br><br><table><tr><td><img src=static/images/oddball_down.png></td><td><img src=static/images/oddball_down.png></td><td><img src=static/images/oddball_up.png></td></tr></table>","69","1","","","","","","","","","","","","","","","","","",""
"","html-keyboard-response",48,208397,"0.0-2.13-1.13",87,19,"f",1666810671367,750,"q","q","Only if I get the answer right","You win money","A fixed time limit",5,"female","I was mostly looking in the middle","no",1,0,0,0,0,1,1,2,1,0,1,1,0,0,0,0,0,0,2,1,0,1,2,2,0,0,0,0,0,2,2,0,1,0,0,1,0,0,1,0,0,2,2,0,0,0,0,2,2,1,1,2,1,3,2,1,2,1,2,1,4,1,2,"null","<div style=""font-size:75px;""><b>Correct</b></div>","null","","","","","","","","","","","","","","","","","","",""
"","html-keyboard-response",49,209407,"0.0-2.13-2.13",87,19,"f",1666810671367,750,"q","q","Only if I get the answer right","You win money","A fixed time limit",5,"female","I was mostly looking in the middle","no",1,0,0,0,0,1,1,2,1,0,1,1,0,0,0,0,0,0,2,1,0,1,2,2,0,0,0,0,0,2,2,0,1,0,0,1,0,0,1,0,0,2,2,0,0,0,0,2,2,1,1,2,1,3,2,1,2,1,2,1,4,1,2,"499.09999990463257","","e","","true","practice","13","down","up","2","e","1","0","1666810881230","","","","","","","",""
"","html-keyboard-response",50,210447,"0.0-2.14-0.14",87,19,"f",1666810671367,750,"q","q","Only if I get the answer right","You win money","A fixed time limit",5,"female","I was mostly looking in the middle","no",1,0,0,0,0,1,1,2,1,0,1,1,0,0,0,0,0,0,2,1,0,1,2,2,0,0,0,0,0,2,2,0,1,0,0,1,0,0,1,0,0,2,2,0,0,0,0,2,2,1,1,2,1,3,2,1,2,1,2,1,4,1,2,"1040","<br><br><br><br><table><tr><td><img src=static/images/oddball_up.png></td><td><img src=static/images/oddball_down.png></td><td><img src=static/images/oddball_up.png></td></tr></table>","87","1","","","","","","","","","","","","","","","","","",""
"","html-keyboard-response",51,212954,"0.0-2.14-1.14",87,19,"f",1666810671367,750,"q","q","Only if I get the answer right","You win money","A fixed time limit",5,"female","I was mostly looking in the middle","no",1,0,0,0,0,1,1,2,1,0,1,1,0,0,0,0,0,0,2,1,0,1,2,2,0,0,0,0,0,2,2,0,1,0,0,1,0,0,1,0,0,2,2,0,0,0,0,2,2,1,1,2,1,3,2,1,2,1,2,1,4,1,2,"null","<div style=""font-size:75px;""><b>Correct</b></div>","null","","","","","","","","","","","","","","","","","","",""
"","html-keyboard-response",52,213965,"0.0-2.14-2.14",87,19,"f",1666810671367,750,"q","q","Only if I get the answer right","You win money","A fixed time limit",5,"female","I was mostly looking in the middle","no",1,0,0,0,0,1,1,2,1,0,1,1,0,0,0,0,0,0,2,1,0,1,2,2,0,0,0,0,0,2,2,0,1,0,0,1,0,0,1,0,0,2,2,0,0,0,0,2,2,1,1,2,1,3,2,1,2,1,2,1,4,1,2,"1040","","w","","true","practice","14","up","down","1","w","1","0","1666810885788","","","","","","","",""
"","html-keyboard-response",53,214496,"0.0-2.15-0.15",87,19,"f",1666810671367,750,"q","q","Only if I get the answer right","You win money","A fixed time limit",5,"female","I was mostly looking in the middle","no",1,0,0,0,0,1,1,2,1,0,1,1,0,0,0,0,0,0,2,1,0,1,2,2,0,0,0,0,0,2,2,0,1,0,0,1,0,0,1,0,0,2,2,0,0,0,0,2,2,1,1,2,1,3,2,1,2,1,2,1,4,1,2,"530.0999999046326","<br><br><br><br><table><tr><td><img src=static/images/oddball_up.png></td><td><img src=static/images/oddball_up.png></td><td><img src=static/images/oddball_down.png></td></tr></table>","69","1","","","","","","","","","","","","","","","","","",""
"","html-keyboard-response",54,216997,"0.0-2.15-1.15",87,19,"f",1666810671367,750,"q","q","Only if I get the answer right","You win money","A fixed time limit",5,"female","I was mostly looking in the middle","no",1,0,0,0,0,1,1,2,1,0,1,1,0,0,0,0,0,0,2,1,0,1,2,2,0,0,0,0,0,2,2,0,1,0,0,1,0,0,1,0,0,2,2,0,0,0,0,2,2,1,1,2,1,3,2,1,2,1,2,1,4,1,2,"null","<div style=""font-size:75px;""><b>Correct</b></div>","null","","","","","","","","","","","","","","","","","","",""
"","html-keyboard-response",55,218008,"0.0-2.15-2.15",87,19,"f",1666810671367,750,"q","q","Only if I get the answer right","You win money","A fixed time limit",5,"female","I was mostly looking in the middle","no",1,0,0,0,0,1,1,2,1,0,1,1,0,0,0,0,0,0,2,1,0,1,2,2,0,0,0,0,0,2,2,0,1,0,0,1,0,0,1,0,0,2,2,0,0,0,0,2,2,1,1,2,1,3,2,1,2,1,2,1,4,1,2,"530.0999999046326","","e","","true","practice","15","up","down","2","e","1","0","1666810889831","","","","","","","",""
"","html-keyboard-response",56,218537,"0.0-2.16-0.16",87,19,"f",1666810671367,750,"q","q","Only if I get the answer right","You win money","A fixed time limit",5,"female","I was mostly looking in the middle","no",1,0,0,0,0,1,1,2,1,0,1,1,0,0,0,0,0,0,2,1,0,1,2,2,0,0,0,0,0,2,2,0,1,0,0,1,0,0,1,0,0,2,2,0,0,0,0,2,2,1,1,2,1,3,2,1,2,1,2,1,4,1,2,"528","<br><br><br><br><table><tr><td><img src=static/images/oddball_down.png></td><td><img src=static/images/oddball_up.png></td><td><img src=static/images/oddball_up.png></td></tr></table>","81","1","","","","","","","","","","","","","","","","","",""
"","html-keyboard-response",57,221083,"0.0-2.16-1.16",87,19,"f",1666810671367,750,"q","q","Only if I get the answer right","You win money","A fixed time limit",5,"female","I was mostly looking in the middle","no",1,0,0,0,0,1,1,2,1,0,1,1,0,0,0,0,0,0,2,1,0,1,2,2,0,0,0,0,0,2,2,0,1,0,0,1,0,0,1,0,0,2,2,0,0,0,0,2,2,1,1,2,1,3,2,1,2,1,2,1,4,1,2,"null","<div style=""font-size:75px;""><b>Correct</b></div>","null","","","","","","","","","","","","","","","","","","",""
"","html-keyboard-response",58,222095,"0.0-2.16-2.16",87,19,"f",1666810671367,750,"q","q","Only if I get the answer right","You win money","A fixed time limit",5,"female","I was mostly looking in the middle","no",1,0,0,0,0,1,1,2,1,0,1,1,0,0,0,0,0,0,2,1,0,1,2,2,0,0,0,0,0,2,2,0,1,0,0,1,0,0,1,0,0,2,2,0,0,0,0,2,2,1,1,2,1,3,2,1,2,1,2,1,4,1,2,"528","","q","","true","practice","16","up","down","0","q","1","0","1666810893918","","","","","","","",""
"","html-keyboard-response",59,222624,"0.0-2.17-0.17",87,19,"f",1666810671367,750,"q","q","Only if I get the answer right","You win money","A fixed time limit",5,"female","I was mostly looking in the middle","no",1,0,0,0,0,1,1,2,1,0,1,1,0,0,0,0,0,0,2,1,0,1,2,2,0,0,0,0,0,2,2,0,1,0,0,1,0,0,1,0,0,2,2,0,0,0,0,2,2,1,1,2,1,3,2,1,2,1,2,1,4,1,2,"528.0999999046326","<br><br><br><br><table><tr><td><img src=static/images/oddball_down.png></td><td><img src=static/images/oddball_up.png></td><td><img src=static/images/oddball_up.png></td></tr></table>","81","1","","","","","","","","","","","","","","","","","",""
"","html-keyboard-response",60,225131,"0.0-2.17-1.17",87,19,"f",1666810671367,750,"q","q","Only if I get the answer right","You win money","A fixed time limit",5,"female","I was mostly looking in the middle","no",1,0,0,0,0,1,1,2,1,0,1,1,0,0,0,0,0,0,2,1,0,1,2,2,0,0,0,0,0,2,2,0,1,0,0,1,0,0,1,0,0,2,2,0,0,0,0,2,2,1,1,2,1,3,2,1,2,1,2,1,4,1,2,"null","<div style=""font-size:75px;""><b>Correct</b></div>","null","","","","","","","","","","","","","","","","","","",""
"","html-keyboard-response",61,226136,"0.0-2.17-2.17",87,19,"f",1666810671367,750,"q","q","Only if I get the answer right","You win money","A fixed time limit",5,"female","I was mostly looking in the middle","no",1,0,0,0,0,1,1,2,1,0,1,1,0,0,0,0,0,0,2,1,0,1,2,2,0,0,0,0,0,2,2,0,1,0,0,1,0,0,1,0,0,2,2,0,0,0,0,2,2,1,1,2,1,3,2,1,2,1,2,1,4,1,2,"528.0999999046326","","q","","true","practice","17","up","down","0","q","1","0","1666810897959","","","","","","","",""
"","html-keyboard-response",62,227505,"0.0-2.18-0.18",87,19,"f",1666810671367,750,"q","q","Only if I get the answer right","You win money","A fixed time limit",5,"female","I was mostly looking in the middle","no",1,0,0,0,0,1,1,2,1,0,1,1,0,0,0,0,0,0,2,1,0,1,2,2,0,0,0,0,0,2,2,0,1,0,0,1,0,0,1,0,0,2,2,0,0,0,0,2,2,1,1,2,1,3,2,1,2,1,2,1,4,1,2,"1367.7000000476837","<br><br><br><br><table><tr><td><img src=static/images/oddball_down.png></td><td><img src=static/images/oddball_up.png></td><td><img src=static/images/oddball_down.png></td></tr></table>","87","1","","","","","","","","","","","","","","","","","",""
"","html-keyboard-response",63,230017,"0.0-2.18-1.18",87,19,"f",1666810671367,750,"q","q","Only if I get the answer right","You win money","A fixed time limit",5,"female","I was mostly looking in the middle","no",1,0,0,0,0,1,1,2,1,0,1,1,0,0,0,0,0,0,2,1,0,1,2,2,0,0,0,0,0,2,2,0,1,0,0,1,0,0,1,0,0,2,2,0,0,0,0,2,2,1,1,2,1,3,2,1,2,1,2,1,4,1,2,"null","<div style=""font-size:75px;""><b>Correct</b></div>","null","","","","","","","","","","","","","","","","","","",""
"","html-keyboard-response",64,231029,"0.0-2.18-2.18",87,19,"f",1666810671367,750,"q","q","Only if I get the answer right","You win money","A fixed time limit",5,"female","I was mostly looking in the middle","no",1,0,0,0,0,1,1,2,1,0,1,1,0,0,0,0,0,0,2,1,0,1,2,2,0,0,0,0,0,2,2,0,1,0,0,1,0,0,1,0,0,2,2,0,0,0,0,2,2,1,1,2,1,3,2,1,2,1,2,1,4,1,2,"1367.7000000476837","","w","","true","practice","18","down","up","1","w","1","0","1666810902852","","","","","","","",""
"","html-keyboard-response",65,231527,"0.0-2.19-0.19",87,19,"f",1666810671367,750,"q","q","Only if I get the answer right","You win money","A fixed time limit",5,"female","I was mostly looking in the middle","no",1,0,0,0,0,1,1,2,1,0,1,1,0,0,0,0,0,0,2,1,0,1,2,2,0,0,0,0,0,2,2,0,1,0,0,1,0,0,1,0,0,2,2,0,0,0,0,2,2,1,1,2,1,3,2,1,2,1,2,1,4,1,2,"497.5","<br><br><br><br><table><tr><td><img src=static/images/oddball_down.png></td><td><img src=static/images/oddball_down.png></td><td><img src=static/images/oddball_up.png></td></tr></table>","69","1","","","","","","","","","","","","","","","","","",""
"","html-keyboard-response",66,234042,"0.0-2.19-1.19",87,19,"f",1666810671367,750,"q","q","Only if I get the answer right","You win money","A fixed time limit",5,"female","I was mostly looking in the middle","no",1,0,0,0,0,1,1,2,1,0,1,1,0,0,0,0,0,0,2,1,0,1,2,2,0,0,0,0,0,2,2,0,1,0,0,1,0,0,1,0,0,2,2,0,0,0,0,2,2,1,1,2,1,3,2,1,2,1,2,1,4,1,2,"null","<div style=""font-size:75px;""><b>Correct</b></div>","null","","","","","","","","","","","","","","","","","","",""
"","html-keyboard-response",67,235056,"0.0-2.19-2.19",87,19,"f",1666810671367,750,"q","q","Only if I get the answer right","You win money","A fixed time limit",5,"female","I was mostly looking in the middle","no",1,0,0,0,0,1,1,2,1,0,1,1,0,0,0,0,0,0,2,1,0,1,2,2,0,0,0,0,0,2,2,0,1,0,0,1,0,0,1,0,0,2,2,0,0,0,0,2,2,1,1,2,1,3,2,1,2,1,2,1,4,1,2,"497.5","","e","","true","practice","19","down","up","2","e","1","0","1666810906879","","","","","","","",""
"","image-keyboard-response",68,241488,"0.0-3.0-0.0",87,19,"f",1666810671367,750,"q","q","Only if I get the answer right","You win money","A fixed time limit",5,"female","I was mostly looking in the middle","no",1,0,0,0,0,1,1,2,1,0,1,1,0,0,0,0,0,0,2,1,0,1,2,2,0,0,0,0,0,2,2,0,1,0,0,1,0,0,1,0,0,2,2,0,0,0,0,2,2,1,1,2,1,3,2,1,2,1,2,1,4,1,2,"6430.900000095367","static/images/instructions/Slide8.png","39","","","","","","","","","","","","","","","","","","",""
"","image-keyboard-response",69,262319,"0.0-3.1-0.1",87,19,"f",1666810671367,750,"q","q","Only if I get the answer right","You win money","A fixed time limit",5,"female","I was mostly looking in the middle","no",1,0,0,0,0,1,1,2,1,0,1,1,0,0,0,0,0,0,2,1,0,1,2,2,0,0,0,0,0,2,2,0,1,0,0,1,0,0,1,0,0,2,2,0,0,0,0,2,2,1,1,2,1,3,2,1,2,1,2,1,4,1,2,"20746.099999904633","static/images/instructions/Slide9.png","39","","","","","","","","","","","","","","","","","","",""
"","image-keyboard-response",70,272663,"0.0-3.2-0.2",87,19,"f",1666810671367,750,"q","q","Only if I get the answer right","You win money","A fixed time limit",5,"female","I was mostly looking in the middle","no",1,0,0,0,0,1,1,2,1,0,1,1,0,0,0,0,0,0,2,1,0,1,2,2,0,0,0,0,0,2,2,0,1,0,0,1,0,0,1,0,0,2,2,0,0,0,0,2,2,1,1,2,1,3,2,1,2,1,2,1,4,1,2,"10342.800000190735","static/images/instructions/Slide10.png","39","","","","","","","","","","","","","","","","","","",""
"","image-keyboard-response",71,291220,"0.0-3.3-0.3",87,19,"f",1666810671367,750,"q","q","Only if I get the answer right","You win money","A fixed time limit",5,"female","I was mostly looking in the middle","no",1,0,0,0,0,1,1,2,1,0,1,1,0,0,0,0,0,0,2,1,0,1,2,2,0,0,0,0,0,2,2,0,1,0,0,1,0,0,1,0,0,2,2,0,0,0,0,2,2,1,1,2,1,3,2,1,2,1,2,1,4,1,2,"18559.299999952316","static/images/instructions/Slide11.png","39","","","","","","","","","","","","","","","","","","",""
"","image-keyboard-response",72,293724,"0.0-3.4-0.4",87,19,"f",1666810671367,750,"q","q","Only if I get the answer right","You win money","A fixed time limit",5,"female","I was mostly looking in the middle","no",1,0,0,0,0,1,1,2,1,0,1,1,0,0,0,0,0,0,2,1,0,1,2,2,0,0,0,0,0,2,2,0,1,0,0,1,0,0,1,0,0,2,2,0,0,0,0,2,2,1,1,2,1,3,2,1,2,1,2,1,4,1,2,"2503.899999856949","static/images/instructions/Slide12.png","39","","","","","","","","","","","","","","","","","","",""
"","image-keyboard-response",73,300636,"0.0-3.5-0.5",87,19,"f",1666810671367,750,"q","q","Only if I get the answer right","You win money","A fixed time limit",5,"female","I was mostly looking in the middle","no",1,0,0,0,0,1,1,2,1,0,1,1,0,0,0,0,0,0,2,1,0,1,2,2,0,0,0,0,0,2,2,0,1,0,0,1,0,0,1,0,0,2,2,0,0,0,0,2,2,1,1,2,1,3,2,1,2,1,2,1,4,1,2,"6911.099999904633","static/images/instructions/Slide13.png","39","","","","","","","","","","","","","","","","","","",""
"","image-keyboard-response",74,309788,"0.0-3.6-0.6",87,19,"f",1666810671367,750,"q","q","Only if I get the answer right","You win money","A fixed time limit",5,"female","I was mostly looking in the middle","no",1,0,0,0,0,1,1,2,1,0,1,1,0,0,0,0,0,0,2,1,0,1,2,2,0,0,0,0,0,2,2,0,1,0,0,1,0,0,1,0,0,2,2,0,0,0,0,2,2,1,1,2,1,3,2,1,2,1,2,1,4,1,2,"9151.599999904633","static/images/instructions/Slide14.png","39","","","","","","","","","","","","","","","","","","",""
"","image-keyboard-response",75,318420,"0.0-3.7-0.7",87,19,"f",1666810671367,750,"q","q","Only if I get the answer right","You win money","A fixed time limit",5,"female","I was mostly looking in the middle","no",1,0,0,0,0,1,1,2,1,0,1,1,0,0,0,0,0,0,2,1,0,1,2,2,0,0,0,0,0,2,2,0,1,0,0,1,0,0,1,0,0,2,2,0,0,0,0,2,2,1,1,2,1,3,2,1,2,1,2,1,4,1,2,"8631","static/images/instructions/Slide15.png","39","","","","","","","","","","","","","","","","","","",""
"","image-keyboard-response",76,336284,"0.0-3.8-0.8",87,19,"f",1666810671367,750,"q","q","Only if I get the answer right","You win money","A fixed time limit",5,"female","I was mostly looking in the middle","no",1,0,0,0,0,1,1,2,1,0,1,1,0,0,0,0,0,0,2,1,0,1,2,2,0,0,0,0,0,2,2,0,1,0,0,1,0,0,1,0,0,2,2,0,0,0,0,2,2,1,1,2,1,3,2,1,2,1,2,1,4,1,2,"17863.60000014305","static/images/instructions/Slide16.png","39","","","","","","","","","","","","","","","","","","",""
"","image-keyboard-response",77,350876,"0.0-3.9-0.9",87,19,"f",1666810671367,750,"q","q","Only if I get the answer right","You win money","A fixed time limit",5,"female","I was mostly looking in the middle","no",1,0,0,0,0,1,1,2,1,0,1,1,0,0,0,0,0,0,2,1,0,1,2,2,0,0,0,0,0,2,2,0,1,0,0,1,0,0,1,0,0,2,2,0,0,0,0,2,2,1,1,2,1,3,2,1,2,1,2,1,4,1,2,"14591.399999856949","static/images/instructions/Slide17.png","39","","","","","","","","","","","","","","","","","","",""
"","survey-multi-choice",78,409349,"0.0-4.0",87,19,"f",1666810671367,750,"q","q","Only if I get the answer right","You win money","A fixed time limit",5,"female","I was mostly looking in the middle","no",1,0,0,0,0,1,1,2,1,0,1,1,0,0,0,0,0,0,2,1,0,1,2,2,0,0,0,0,0,2,2,0,1,0,0,1,0,0,1,0,0,2,2,0,0,0,0,2,2,1,1,2,1,3,2,1,2,1,2,1,4,1,2,"58190.300000190735","","","","","","","","","","","","","","{""q1"":""q"",""q2"":""q"",""q3"":""Only if I get the answer right"",""q4"":""You win money"",""q5"":""A fixed time limit""}","[1,3,2,0,4]","","","","","",""
"","image-keyboard-response",79,417351,"0.0-5.0-0.0",87,19,"f",1666810671367,750,"q","q","Only if I get the answer right","You win money","A fixed time limit",5,"female","I was mostly looking in the middle","no",1,0,0,0,0,1,1,2,1,0,1,1,0,0,0,0,0,0,2,1,0,1,2,2,0,0,0,0,0,2,2,0,1,0,0,1,0,0,1,0,0,2,2,0,0,0,0,2,2,1,1,2,1,3,2,1,2,1,2,1,4,1,2,"7976.400000095367","static/images/instructions/Slide18.png","39","","","","","","","","","","","","","","","","","","",""
"","html-keyboard-response",80,418363,"0.0-6.0-0.0-0.0",87,19,"f",1666810671367,750,"q","q","Only if I get the answer right","You win money","A fixed time limit",5,"female","I was mostly looking in the middle","no",1,0,0,0,0,1,1,2,1,0,1,1,0,0,0,0,0,0,2,1,0,1,2,2,0,0,0,0,0,2,2,0,1,0,0,1,0,0,1,0,0,2,2,0,0,0,0,2,2,1,1,2,1,3,2,1,2,1,2,1,4,1,2,"null","<div style=""font-size:75px;"">3</div>","null","","","","","","","","","","","","","","","","","","",""
"","html-keyboard-response",81,419368,"0.0-6.0-0.1-0.1",87,19,"f",1666810671367,750,"q","q","Only if I get the answer right","You win money","A fixed time limit",5,"female","I was mostly looking in the middle","no",1,0,0,0,0,1,1,2,1,0,1,1,0,0,0,0,0,0,2,1,0,1,2,2,0,0,0,0,0,2,2,0,1,0,0,1,0,0,1,0,0,2,2,0,0,0,0,2,2,1,1,2,1,3,2,1,2,1,2,1,4,1,2,"null","<div style=""font-size:75px;"">2</div>","null","","","","","","","","","","","","","","","","","","",""
"","html-keyboard-response",82,420369,"0.0-6.0-0.2-0.2",87,19,"f",1666810671367,750,"q","q","Only if I get the answer right","You win money","A fixed time limit",5,"female","I was mostly looking in the middle","no",1,0,0,0,0,1,1,2,1,0,1,1,0,0,0,0,0,0,2,1,0,1,2,2,0,0,0,0,0,2,2,0,1,0,0,1,0,0,1,0,0,2,2,0,0,0,0,2,2,1,1,2,1,3,2,1,2,1,2,1,4,1,2,"null","<div style=""font-size:75px;"">1</div>","null","","","","","","","","","","","","","","","","","","",""
"","html-keyboard-response",83,420903,"0.0-6.0-1.0-0.0",87,19,"f",1666810671367,750,"q","q","Only if I get the answer right","You win money","A fixed time limit",5,"female","I was mostly looking in the middle","no",1,0,0,0,0,1,1,2,1,0,1,1,0,0,0,0,0,0,2,1,0,1,2,2,0,0,0,0,0,2,2,0,1,0,0,1,0,0,1,0,0,2,2,0,0,0,0,2,2,1,1,2,1,3,2,1,2,1,2,1,4,1,2,"500.5","<div style=""color:green; font-size:75px;""><b>$0.02</b></div><br><br><br><br><table><tr><td><img src=static/images/oddball_down.png></td><td><img src=static/images/oddball_up.png></td><td><img src=static/images/oddball_up.png></td></tr></table>","81","1","","","","","","","","","","","","","","","","","",""
"","html-keyboard-response",84,420817.40353579,"0.0-6.0-1.0-1.0",87,19,"f",1666810671367,750,"q","q","Only if I get the answer right","You win money","A fixed time limit",5,"female","I was mostly looking in the middle","no",1,0,0,0,0,1,1,2,1,0,1,1,0,0,0,0,0,0,2,1,0,1,2,2,0,0,0,0,0,2,2,0,1,0,0,1,0,0,1,0,0,2,2,0,0,0,0,2,2,1,1,2,1,3,2,1,2,1,2,1,4,1,2,"310.90354","","q","","true","0","0","up","down","0","q","1","0","1666811092640.4","","","false","60","0","0","0.02","null"
"","html-keyboard-response",85,421768,"0.0-6.0-1.1-0.1",87,19,"f",1666810671367,750,"q","q","Only if I get the answer right","You win money","A fixed time limit",5,"female","I was mostly looking in the middle","no",1,0,0,0,0,1,1,2,1,0,1,1,0,0,0,0,0,0,2,1,0,1,2,2,0,0,0,0,0,2,2,0,1,0,0,1,0,0,1,0,0,2,2,0,0,0,0,2,2,1,1,2,1,3,2,1,2,1,2,1,4,1,2,"null","<div style=""color:green; font-size:75px;""><b>$0.02</b></div><br><br><br><br><table><tr><td><img src=static/images/oddball_down.png></td><td><img src=static/images/oddball_down.png></td><td><img src=static/images/oddball_up.png></td></tr></table>","null","","","","","","","","","","","","","","","","","","",""
"","html-keyboard-response",86,421879,"0.0-6.0-1.1-1.1",87,19,"f",1666810671367,750,"q","q","Only if I get the answer right","You win money","A fixed time limit",5,"female","I was mostly looking in the middle","no",1,0,0,0,0,1,1,2,1,0,1,1,0,0,0,0,0,0,2,1,0,1,2,2,0,0,0,0,0,2,2,0,1,0,0,1,0,0,1,0,0,2,2,0,0,0,0,2,2,1,1,2,1,3,2,1,2,1,2,1,4,1,2,"null","","null","","true","0","1","down","up","2","e","0","0","1666811093702","","","false","60","1","0.0166666666666667","0.02","true"
"","html-keyboard-response",87,422119,"0.0-6.0-1.2-0.2",87,19,"f",1666810671367,750,"q","q","Only if I get the answer right","You win money","A fixed time limit",5,"female","I was mostly looking in the middle","no",1,0,0,0,0,1,1,2,1,0,1,1,0,0,0,0,0,0,2,1,0,1,2,2,0,0,0,0,0,2,2,0,1,0,0,1,0,0,1,0,0,2,2,0,0,0,0,2,2,1,1,2,1,3,2,1,2,1,2,1,4,1,2,"239.40000009536743","<div style=""color:green; font-size:75px;""><b>$0.02</b></div><br><br><br><br><table><tr><td><img src=static/images/oddball_up.png></td><td><img src=static/images/oddball_down.png></td><td><img src=static/images/oddball_up.png></td></tr></table>","69","1","","","","","","","","","","","","","","","","","",""
"","html-keyboard-response",88,422237.54915329,"0.0-6.0-1.2-1.2",87,19,"f",1666810671367,750,"q","q","Only if I get the answer right","You win money","A fixed time limit",5,"female","I was mostly looking in the middle","no",1,0,0,0,0,1,1,2,1,0,1,1,0,0,0,0,0,0,2,1,0,1,2,2,0,0,0,0,0,2,2,0,1,0,0,1,0,0,1,0,0,2,2,0,0,0,0,2,2,1,1,2,1,3,2,1,2,1,2,1,4,1,2,"250.949153385514","","e","","true","0","2","up","down","1","w","0","0","1666811094060.55","","","false","60","2","0.0166666666666667","0.02","false"
"","html-keyboard-response",89,422575,"0.0-6.0-1.3-0.3",87,19,"f",1666810671367,750,"q","q","Only if I get the answer right","You win money","A fixed time limit",5,"female","I was mostly looking in the middle","no",1,0,0,0,0,1,1,2,1,0,1,1,0,0,0,0,0,0,2,1,0,1,2,2,0,0,0,0,0,2,2,0,1,0,0,1,0,0,1,0,0,2,2,0,0,0,0,2,2,1,1,2,1,3,2,1,2,1,2,1,4,1,2,"349.10000014305115","<div style=""color:green; font-size:75px;""><b>$0.02</b></div><br><br><br><br><table><tr><td><img src=static/images/oddball_up.png></td><td><img src=static/images/oddball_down.png></td><td><img src=static/images/oddball_up.png></td></tr></table>","87","1","","","","","","","","","","","","","","","","","",""
"","html-keyboard-response",90,422646.981540197,"0.0-6.0-1.3-1.3",87,19,"f",1666810671367,750,"q","q","Only if I get the answer right","You win money","A fixed time limit",5,"female","I was mostly looking in the middle","no",1,0,0,0,0,1,1,2,1,0,1,1,0,0,0,0,0,0,2,1,0,1,2,2,0,0,0,0,0,2,2,0,1,0,0,1,0,0,1,0,0,2,2,0,0,0,0,2,2,1,1,2,1,3,2,1,2,1,2,1,4,1,2,"319.081540340007","","w","","true","0","3","up","down","1","w","1","0","1666811094495.98","","","false","60","3","0.0166666666666667","0.02","false"
"","html-keyboard-response",91,423151,"0.0-6.0-1.4-0.4",87,19,"f",1666810671367,750,"q","q","Only if I get the answer right","You win money","A fixed time limit",5,"female","I was mostly looking in the middle","no",1,0,0,0,0,1,1,2,1,0,1,1,0,0,0,0,0,0,2,1,0,1,2,2,0,0,0,0,0,2,2,0,1,0,0,1,0,0,1,0,0,2,2,0,0,0,0,2,2,1,1,2,1,3,2,1,2,1,2,1,4,1,2,"448","<div style=""color:green; font-size:75px;""><b>$0.02</b></div><br><br><br><br><table><tr><td><img src=static/images/oddball_down.png></td><td><img src=static/images/oddball_up.png></td><td><img src=static/images/oddball_up.png></td></tr></table>","81","1","","","","","","","","","","","","","","","","","",""
"","html-keyboard-response",92,423211.325478511,"0.0-6.0-1.4-1.4",87,19,"f",1666810671367,750,"q","q","Only if I get the answer right","You win money","A fixed time limit",5,"female","I was mostly looking in the middle","no",1,0,0,0,0,1,1,2,1,0,1,1,0,0,0,0,0,0,2,1,0,1,2,2,0,0,0,0,0,2,2,0,1,0,0,1,0,0,1,0,0,2,2,0,0,0,0,2,2,1,1,2,1,3,2,1,2,1,2,1,4,1,2,"397.325","","q","","true","0","4","up","down","0","q","1","0","1666811095034.33","","","false","60","4","0.0333333333333333","0.02","false"
"","html-keyboard-response",93,423671,"0.0-6.0-1.5-0.5",87,19,"f",1666810671367,750,"q","q","Only if I get the answer right","You win money","A fixed time limit",5,"female","I was mostly looking in the middle","no",1,0,0,0,0,1,1,2,1,0,1,1,0,0,0,0,0,0,2,1,0,1,2,2,0,0,0,0,0,2,2,0,1,0,0,1,0,0,1,0,0,2,2,0,0,0,0,2,2,1,1,2,1,3,2,1,2,1,2,1,4,1,2,"408.40000009536743","<div style=""color:green; font-size:75px;""><b>$0.02</b></div><br><br><br><br><table><tr><td><img src=static/images/oddball_down.png></td><td><img src=static/images/oddball_up.png></td><td><img src=static/images/oddball_up.png></td></tr></table>","81","1","","","","","","","","","","","","","","","","","",""
"","html-keyboard-response",94,423753.572722681,"0.0-6.0-1.5-1.5",87,19,"f",1666810671367,750,"q","q","Only if I get the answer right","You win money","A fixed time limit",5,"female","I was mostly looking in the middle","no",1,0,0,0,0,1,1,2,1,0,1,1,0,0,0,0,0,0,2,1,0,1,2,2,0,0,0,0,0,2,2,0,1,0,0,1,0,0,1,0,0,2,2,0,0,0,0,2,2,1,1,2,1,3,2,1,2,1,2,1,4,1,2,"386.972722776618","","q","","true","0","5","up","down","0","q","1","0","1666811095576.57","","","false","60","5","0.05","0.02","false"
"","html-keyboard-response",95,424279,"0.0-6.0-1.6-0.6",87,19,"f",1666810671367,750,"q","q","Only if I get the answer right","You win money","A fixed time limit",5,"female","I was mostly looking in the middle","no",1,0,0,0,0,1,1,2,1,0,1,1,0,0,0,0,0,0,2,1,0,1,2,2,0,0,0,0,0,2,2,0,1,0,0,1,0,0,1,0,0,2,2,0,0,0,0,2,2,1,1,2,1,3,2,1,2,1,2,1,4,1,2,"503.39999985694885","<div style=""color:green; font-size:75px;""><b>$0.02</b></div><br><br><br><br><table><tr><td><img src=static/images/oddball_up.png></td><td><img src=static/images/oddball_down.png></td><td><img src=static/images/oddball_down.png></td></tr></table>","81","1","","","","","","","","","","","","","","","","","",""
"","html-keyboard-response",96,424390.801997667,"0.0-6.0-1.6-1.6",87,19,"f",1666810671367,750,"q","q","Only if I get the answer right","You win money","A fixed time limit",5,"female","I was mostly looking in the middle","no",1,0,0,0,0,1,1,2,1,0,1,1,0,0,0,0,0,0,2,1,0,1,2,2,0,0,0,0,0,2,2,0,1,0,0,1,0,0,1,0,0,2,2,0,0,0,0,2,2,1,1,2,1,3,2,1,2,1,2,1,4,1,2,"503.201997523751","","q","","true","0","6","down","up","0","q","1","0","1666811096213.8","","","false","60","6","0.0666666666666667","0.02","false"
"","html-keyboard-response",97,424903,"0.0-6.0-1.7-0.7",87,19,"f",1666810671367,750,"q","q","Only if I get the answer right","You win money","A fixed time limit",5,"female","I was mostly looking in the middle","no",1,0,0,0,0,1,1,2,1,0,1,1,0,0,0,0,0,0,2,1,0,1,2,2,0,0,0,0,0,2,2,0,1,0,0,1,0,0,1,0,0,2,2,0,0,0,0,2,2,1,1,2,1,3,2,1,2,1,2,1,4,1,2,"511.2999999523163","<div style=""color:green; font-size:75px;""><b>$0.02</b></div><br><br><br><br><table><tr><td><img src=static/images/oddball_up.png></td><td><img src=static/images/oddball_down.png></td><td><img src=static/images/oddball_up.png></td></tr></table>","87","1","","","","","","","","","","","","","","","","","",""
"","html-keyboard-response",98,425089.009467681,"0.0-6.0-1.7-1.7",87,19,"f",1666810671367,750,"q","q","Only if I get the answer right","You win money","A fixed time limit",5,"female","I was mostly looking in the middle","no",1,0,0,0,0,1,1,2,1,0,1,1,0,0,0,0,0,0,2,1,0,1,2,2,0,0,0,0,0,2,2,0,1,0,0,1,0,0,1,0,0,2,2,0,0,0,0,2,2,1,1,2,1,3,2,1,2,1,2,1,4,1,2,"593.309467633294","","w","","true","0","7","up","down","1","w","1","0","1666811096912.01","","","false","60","7","0.0833333333333333","0.02","false"
"","html-keyboard-response",99,425440,"0.0-6.0-1.8-0.8",87,19,"f",1666810671367,750,"q","q","Only if I get the answer right","You win money","A fixed time limit",5,"female","I was mostly looking in the middle","no",1,0,0,0,0,1,1,2,1,0,1,1,0,0,0,0,0,0,2,1,0,1,2,2,0,0,0,0,0,2,2,0,1,0,0,1,0,0,1,0,0,2,2,0,0,0,0,2,2,1,1,2,1,3,2,1,2,1,2,1,4,1,2,"431.2000000476837","<div style=""color:green; font-size:75px;""><b>$0.02</b></div><br><br><br><br><table><tr><td><img src=static/images/oddball_up.png></td><td><img src=static/images/oddball_down.png></td><td><img src=static/images/oddball_up.png></td></tr></table>","87","1","","","","","","","","","","","","","","","","","",""
"","html-keyboard-response",100,425527.692930837,"0.0-6.0-1.8-1.8",87,19,"f",1666810671367,750,"q","q","Only if I get the answer right","You win money","A fixed time limit",5,"female","I was mostly looking in the middle","no",1,0,0,0,0,1,1,2,1,0,1,1,0,0,0,0,0,0,2,1,0,1,2,2,0,0,0,0,0,2,2,0,1,0,0,1,0,0,1,0,0,2,2,0,0,0,0,2,2,1,1,2,1,3,2,1,2,1,2,1,4,1,2,"408.892930884638","","w","","true","0","8","up","down","1","w","1","0","1666811097351.69","","","false","60","8","0.1","0.02","false"
"","html-keyboard-response",101,426280,"0.0-6.0-1.9-0.9",87,19,"f",1666810671367,750,"q","q","Only if I get the answer right","You win money","A fixed time limit",5,"female","I was mostly looking in the middle","no",1,0,0,0,0,1,1,2,1,0,1,1,0,0,0,0,0,0,2,1,0,1,2,2,0,0,0,0,0,2,2,0,1,0,0,1,0,0,1,0,0,2,2,0,0,0,0,2,2,1,1,2,1,3,2,1,2,1,2,1,4,1,2,"727.7999999523163","<div style=""color:green; font-size:75px;""><b>$0.02</b></div><br><br><br><br><table><tr><td><img src=static/images/oddball_down.png></td><td><img src=static/images/oddball_up.png></td><td><img src=static/images/oddball_down.png></td></tr></table>","87","1","","","","","","","","","","","","","","","","","",""
"","html-keyboard-response",102,426396.956285829,"0.0-6.0-1.9-1.9",87,19,"f",1666810671367,750,"q","q","Only if I get the answer right","You win money","A fixed time limit",5,"female","I was mostly looking in the middle","no",1,0,0,0,0,1,1,2,1,0,1,1,0,0,0,0,0,0,2,1,0,1,2,2,0,0,0,0,0,2,2,0,1,0,0,1,0,0,1,0,0,2,2,0,0,0,0,2,2,1,1,2,1,3,2,1,2,1,2,1,4,1,2,"740.756285781556","","w","","true","0","9","down","up","1","w","1","0","1666811098219.96","","","false","60","9","0.116666666666667","0.02","false"
"","html-keyboard-response",103,426872,"0.0-6.0-1.10-0.10",87,19,"f",1666810671367,750,"q","q","Only if I get the answer right","You win money","A fixed time limit",5,"female","I was mostly looking in the middle","no",1,0,0,0,0,1,1,2,1,0,1,1,0,0,0,0,0,0,2,1,0,1,2,2,0,0,0,0,0,2,2,0,1,0,0,1,0,0,1,0,0,2,2,0,0,0,0,2,2,1,1,2,1,3,2,1,2,1,2,1,4,1,2,"487.39999985694885","<div style=""color:green; font-size:75px;""><b>$0.02</b></div><br><br><br><br><table><tr><td><img src=static/images/oddball_up.png></td><td><img src=static/images/oddball_down.png></td><td><img src=static/images/oddball_down.png></td></tr></table>","81","1","","","","","","","","","","","","","","","","","",""
"","html-keyboard-response",104,427058.054401408,"0.0-6.0-1.10-1.10",87,19,"f",1666810671367,750,"q","q","Only if I get the answer right","You win money","A fixed time limit",5,"female","I was mostly looking in the middle","no",1,0,0,0,0,1,1,2,1,0,1,1,0,0,0,0,0,0,2,1,0,1,2,2,0,0,0,0,0,2,2,0,1,0,0,1,0,0,1,0,0,2,2,0,0,0,0,2,2,1,1,2,1,3,2,1,2,1,2,1,4,1,2,"561.454401265224","","q","","true","0","10","down","up","0","q","1","0","1666811098881.05","","","false","60","10","0.133333333333333","0.02","false"
"","html-keyboard-response",105,427544,"0.0-6.0-1.11-0.11",87,19,"f",1666810671367,750,"q","q","Only if I get the answer right","You win money","A fixed time limit",5,"female","I was mostly looking in the middle","no",1,0,0,0,0,1,1,2,1,0,1,1,0,0,0,0,0,0,2,1,0,1,2,2,0,0,0,0,0,2,2,0,1,0,0,1,0,0,1,0,0,2,2,0,0,0,0,2,2,1,1,2,1,3,2,1,2,1,2,1,4,1,2,"558.8999998569489","<div style=""color:green; font-size:75px;""><b>$0.02</b></div><br><br><br><br><table><tr><td><img src=static/images/oddball_down.png></td><td><img src=static/images/oddball_up.png></td><td><img src=static/images/oddball_up.png></td></tr></table>","81","1","","","","","","","","","","","","","","","","","",""
"","html-keyboard-response",106,427704.804645842,"0.0-6.0-1.11-1.11",87,19,"f",1666810671367,750,"q","q","Only if I get the answer right","You win money","A fixed time limit",5,"female","I was mostly looking in the middle","no",1,0,0,0,0,1,1,2,1,0,1,1,0,0,0,0,0,0,2,1,0,1,2,2,0,0,0,0,0,2,2,0,1,0,0,1,0,0,1,0,0,2,2,0,0,0,0,2,2,1,1,2,1,3,2,1,2,1,2,1,4,1,2,"608.704645698655","","q","","true","0","11","up","down","0","q","1","0","1666811099527.8","","","false","60","11","0.15","0.02","false"
"","html-keyboard-response",107,428359,"0.0-6.0-1.12-0.12",87,19,"f",1666810671367,750,"q","q","Only if I get the answer right","You win money","A fixed time limit",5,"female","I was mostly looking in the middle","no",1,0,0,0,0,1,1,2,1,0,1,1,0,0,0,0,0,0,2,1,0,1,2,2,0,0,0,0,0,2,2,0,1,0,0,1,0,0,1,0,0,2,2,0,0,0,0,2,2,1,1,2,1,3,2,1,2,1,2,1,4,1,2,"704.4000000953674","<div style=""color:green; font-size:75px;""><b>$0.02</b></div><br><br><br><br><table><tr><td><img src=static/images/oddball_down.png></td><td><img src=static/images/oddball_up.png></td><td><img src=static/images/oddball_down.png></td></tr></table>","87","1","","","","","","","","","","","","","","","","","",""
"","html-keyboard-response",108,428506.363304545,"0.0-6.0-1.12-1.12",87,19,"f",1666810671367,750,"q","q","Only if I get the answer right","You win money","A fixed time limit",5,"female","I was mostly looking in the middle","no",1,0,0,0,0,1,1,2,1,0,1,1,0,0,0,0,0,0,2,1,0,1,2,2,0,0,0,0,0,2,2,0,1,0,0,1,0,0,1,0,0,2,2,0,0,0,0,2,2,1,1,2,1,3,2,1,2,1,2,1,4,1,2,"738.763304640774","","w","","true","0","12","down","up","1","w","1","0","1666811100329.36","","","false","60","12","0.166666666666667","0.02","false"
"","html-keyboard-response",109,428999,"0.0-6.0-1.13-0.13",87,19,"f",1666810671367,750,"q","q","Only if I get the answer right","You win money","A fixed time limit",5,"female","I was mostly looking in the middle","no",1,0,0,0,0,1,1,2,1,0,1,1,0,0,0,0,0,0,2,1,0,1,2,2,0,0,0,0,0,2,2,0,1,0,0,1,0,0,1,0,0,2,2,0,0,0,0,2,2,1,1,2,1,3,2,1,2,1,2,1,4,1,2,"527.0999999046326","<div style=""color:green; font-size:75px;""><b>$0.02</b></div><br><br><br><br><table><tr><td><img src=static/images/oddball_down.png></td><td><img src=static/images/oddball_down.png></td><td><img src=static/images/oddball_up.png></td></tr></table>","69","1","","","","","","","","","","","","","","","","","",""
"","html-keyboard-response",110,429064.358208054,"0.0-6.0-1.13-1.13",87,19,"f",1666810671367,750,"q","q","Only if I get the answer right","You win money","A fixed time limit",5,"female","I was mostly looking in the middle","no",1,0,0,0,0,1,1,2,1,0,1,1,0,0,0,0,0,0,2,1,0,1,2,2,0,0,0,0,0,2,2,0,1,0,0,1,0,0,1,0,0,2,2,0,0,0,0,2,2,1,1,2,1,3,2,1,2,1,2,1,4,1,2,"485.458207958783","","e","","true","0","13","down","up","2","e","1","0","1666811100887.36","","","false","60","13","0.183333333333333","0.02","false"
"","html-keyboard-response",111,429663,"0.0-6.0-1.14-0.14",87,19,"f",1666810671367,750,"q","q","Only if I get the answer right","You win money","A fixed time limit",5,"female","I was mostly looking in the middle","no",1,0,0,0,0,1,1,2,1,0,1,1,0,0,0,0,0,0,2,1,0,1,2,2,0,0,0,0,0,2,2,0,1,0,0,1,0,0,1,0,0,2,2,0,0,0,0,2,2,1,1,2,1,3,2,1,2,1,2,1,4,1,2,"556.6999998092651","<div style=""color:green; font-size:75px;""><b>$0.02</b></div><br><br><br><br><table><tr><td><img src=static/images/oddball_up.png></td><td><img src=static/images/oddball_up.png></td><td><img src=static/images/oddball_down.png></td></tr></table>","69","1","","","","","","","","","","","","","","","","","",""
"","html-keyboard-response",112,429723.321720291,"0.0-6.0-1.14-1.14",87,19,"f",1666810671367,750,"q","q","Only if I get the answer right","You win money","A fixed time limit",5,"female","I was mostly looking in the middle","no",1,0,0,0,0,1,1,2,1,0,1,1,0,0,0,0,0,0,2,1,0,1,2,2,0,0,0,0,0,2,2,0,1,0,0,1,0,0,1,0,0,2,2,0,0,0,0,2,2,1,1,2,1,3,2,1,2,1,2,1,4,1,2,"505.021720100551","","e","","true","0","14","up","down","2","e","1","0","1666811101546.32","","","false","60","14","0.2","0.02","false"
"","html-keyboard-response",113,430350,"0.0-6.0-1.15-0.15",87,19,"f",1666810671367,750,"q","q","Only if I get the answer right","You win money","A fixed time limit",5,"female","I was mostly looking in the middle","no",1,0,0,0,0,1,1,2,1,0,1,1,0,0,0,0,0,0,2,1,0,1,2,2,0,0,0,0,0,2,2,0,1,0,0,1,0,0,1,0,0,2,2,0,0,0,0,2,2,1,1,2,1,3,2,1,2,1,2,1,4,1,2,"479.90000009536743","<div style=""color:green; font-size:75px;""><b>$0.02</b></div><br><br><br><br><table><tr><td><img src=static/images/oddball_up.png></td><td><img src=static/images/oddball_down.png></td><td><img src=static/images/oddball_down.png></td></tr></table>","81","1","","","","","","","","","","","","","","","","","",""
"","html-keyboard-response",114,430535.657613885,"0.0-6.0-1.15-1.15",87,19,"f",1666810671367,750,"q","q","Only if I get the answer right","You win money","A fixed time limit",5,"female","I was mostly looking in the middle","no",1,0,0,0,0,1,1,2,1,0,1,1,0,0,0,0,0,0,2,1,0,1,2,2,0,0,0,0,0,2,2,0,1,0,0,1,0,0,1,0,0,2,2,0,0,0,0,2,2,1,1,2,1,3,2,1,2,1,2,1,4,1,2,"556.557613980328","","q","","true","0","15","down","up","0","q","1","0","1666811102358.66","","","false","60","15","0.216666666666667","0.02","false"
"","html-keyboard-response",115,431055,"0.0-6.0-1.16-0.16",87,19,"f",1666810671367,750,"q","q","Only if I get the answer right","You win money","A fixed time limit",5,"female","I was mostly looking in the middle","no",1,0,0,0,0,1,1,2,1,0,1,1,0,0,0,0,0,0,2,1,0,1,2,2,0,0,0,0,0,2,2,0,1,0,0,1,0,0,1,0,0,2,2,0,0,0,0,2,2,1,1,2,1,3,2,1,2,1,2,1,4,1,2,"596.2999999523163","<div style=""color:green; font-size:75px;""><b>$0.02</b></div><br><br><br><br><table><tr><td><img src=static/images/oddball_up.png></td><td><img src=static/images/oddball_down.png></td><td><img src=static/images/oddball_up.png></td></tr></table>","87","1","","","","","","","","","","","","","","","","","",""
"","html-keyboard-response",116,431192.388257663,"0.0-6.0-1.16-1.16",87,19,"f",1666810671367,750,"q","q","Only if I get the answer right","You win money","A fixed time limit",5,"female","I was mostly looking in the middle","no",1,0,0,0,0,1,1,2,1,0,1,1,0,0,0,0,0,0,2,1,0,1,2,2,0,0,0,0,0,2,2,0,1,0,0,1,0,0,1,0,0,2,2,0,0,0,0,2,2,1,1,2,1,3,2,1,2,1,2,1,4,1,2,"629.688257615077","","w","","true","0","16","up","down","1","w","1","0","1666811103015.39","","","false","60","16","0.233333333333333","0.02","false"
"","html-keyboard-response",117,431648,"0.0-6.0-1.17-0.17",87,19,"f",1666810671367,750,"q","q","Only if I get the answer right","You win money","A fixed time limit",5,"female","I was mostly looking in the middle","no",1,0,0,0,0,1,1,2,1,0,1,1,0,0,0,0,0,0,2,1,0,1,2,2,0,0,0,0,0,2,2,0,1,0,0,1,0,0,1,0,0,2,2,0,0,0,0,2,2,1,1,2,1,3,2,1,2,1,2,1,4,1,2,"487.40000009536743","<div style=""color:green; font-size:75px;""><b>$0.02</b></div><br><br><br><br><table><tr><td><img src=static/images/oddball_up.png></td><td><img src=static/images/oddball_down.png></td><td><img src=static/images/oddball_down.png></td></tr></table>","81","1","","","","","","","","","","","","","","","","","",""
"","html-keyboard-response",118,431738.741013089,"0.0-6.0-1.17-1.17",87,19,"f",1666810671367,750,"q","q","Only if I get the answer right","You win money","A fixed time limit",5,"female","I was mostly looking in the middle","no",1,0,0,0,0,1,1,2,1,0,1,1,0,0,0,0,0,0,2,1,0,1,2,2,0,0,0,0,0,2,2,0,1,0,0,1,0,0,1,0,0,2,2,0,0,0,0,2,2,1,1,2,1,3,2,1,2,1,2,1,4,1,2,"465.141013184049","","q","","true","0","17","down","up","0","q","1","0","1666811103561.74","","","false","60","17","0.25","0.02","false"
"","html-keyboard-response",119,432224,"0.0-6.0-1.18-0.18",87,19,"f",1666810671367,750,"q","q","Only if I get the answer right","You win money","A fixed time limit",5,"female","I was mostly looking in the middle","no",1,0,0,0,0,1,1,2,1,0,1,1,0,0,0,0,0,0,2,1,0,1,2,2,0,0,0,0,0,2,2,0,1,0,0,1,0,0,1,0,0,2,2,0,0,0,0,2,2,1,1,2,1,3,2,1,2,1,2,1,4,1,2,"461.40000009536743","<div style=""color:green; font-size:75px;""><b>$0.02</b></div><br><br><br><br><table><tr><td><img src=static/images/oddball_down.png></td><td><img src=static/images/oddball_up.png></td><td><img src=static/images/oddball_down.png></td></tr></table>","87","1","","","","","","","","","","","","","","","","","",""
"","html-keyboard-response",120,432377.387339035,"0.0-6.0-1.18-1.18",87,19,"f",1666810671367,750,"q","q","Only if I get the answer right","You win money","A fixed time limit",5,"female","I was mostly looking in the middle","no",1,0,0,0,0,1,1,2,1,0,1,1,0,0,0,0,0,0,2,1,0,1,2,2,0,0,0,0,0,2,2,0,1,0,0,1,0,0,1,0,0,2,2,0,0,0,0,2,2,1,1,2,1,3,2,1,2,1,2,1,4,1,2,"510.787339130237","","w","","true","0","18","down","up","1","w","1","0","1666811104200.39","","","false","60","18","0.266666666666667","0.02","false"
"","html-keyboard-response",121,432800,"0.0-6.0-1.19-0.19",87,19,"f",1666810671367,750,"q","q","Only if I get the answer right","You win money","A fixed time limit",5,"female","I was mostly looking in the middle","no",1,0,0,0,0,1,1,2,1,0,1,1,0,0,0,0,0,0,2,1,0,1,2,2,0,0,0,0,0,2,2,0,1,0,0,1,0,0,1,0,0,2,2,0,0,0,0,2,2,1,1,2,1,3,2,1,2,1,2,1,4,1,2,"470.89999985694885","<div style=""color:green; font-size:75px;""><b>$0.02</b></div><br><br><br><br><table><tr><td><img src=static/images/oddball_down.png></td><td><img src=static/images/oddball_down.png></td><td><img src=static/images/oddball_up.png></td></tr></table>","69","1","","","","","","","","","","","","","","","","","",""
"","html-keyboard-response",122,433044.9859959,"0.0-6.0-1.19-1.19",87,19,"f",1666810671367,750,"q","q","Only if I get the answer right","You win money","A fixed time limit",5,"female","I was mostly looking in the middle","no",1,0,0,0,0,1,1,2,1,0,1,1,0,0,0,0,0,0,2,1,0,1,2,2,0,0,0,0,0,2,2,0,1,0,0,1,0,0,1,0,0,2,2,0,0,0,0,2,2,1,1,2,1,3,2,1,2,1,2,1,4,1,2,"602.885995756481","","e","","true","0","19","down","up","2","e","1","0","1666811104867.99","","","false","60","19","0.283333333333333","0.02","false"
"","html-keyboard-response",123,433583,"0.0-6.0-1.20-0.20",87,19,"f",1666810671367,750,"q","q","Only if I get the answer right","You win money","A fixed time limit",5,"female","I was mostly looking in the middle","no",1,0,0,0,0,1,1,2,1,0,1,1,0,0,0,0,0,0,2,1,0,1,2,2,0,0,0,0,0,2,2,0,1,0,0,1,0,0,1,0,0,2,2,0,0,0,0,2,2,1,1,2,1,3,2,1,2,1,2,1,4,1,2,"669.9000000953674","<div style=""color:green; font-size:75px;""><b>$0.02</b></div><br><br><br><br><table><tr><td><img src=static/images/oddball_up.png></td><td><img src=static/images/oddball_down.png></td><td><img src=static/images/oddball_up.png></td></tr></table>","87","1","","","","","","","","","","","","","","","","","",""
"","html-keyboard-response",124,433712.778560497,"0.0-6.0-1.20-1.20",87,19,"f",1666810671367,750,"q","q","Only if I get the answer right","You win money","A fixed time limit",5,"female","I was mostly looking in the middle","no",1,0,0,0,0,1,1,2,1,0,1,1,0,0,0,0,0,0,2,1,0,1,2,2,0,0,0,0,0,2,2,0,1,0,0,1,0,0,1,0,0,2,2,0,0,0,0,2,2,1,1,2,1,3,2,1,2,1,2,1,4,1,2,"684.678560592841","","w","","true","0","20","up","down","1","w","1","0","1666811105535.78","","","false","60","20","0.3","0.02","false"
"","html-keyboard-response",125,434152,"0.0-6.0-1.21-0.21",87,19,"f",1666810671367,750,"q","q","Only if I get the answer right","You win money","A fixed time limit",5,"female","I was mostly looking in the middle","no",1,0,0,0,0,1,1,2,1,0,1,1,0,0,0,0,0,0,2,1,0,1,2,2,0,0,0,0,0,2,2,0,1,0,0,1,0,0,1,0,0,2,2,0,0,0,0,2,2,1,1,2,1,3,2,1,2,1,2,1,4,1,2,"453.09999990463257","<div style=""color:green; font-size:75px;""><b>$0.02</b></div><br><br><br><br><table><tr><td><img src=static/images/oddball_up.png></td><td><img src=static/images/oddball_down.png></td><td><img src=static/images/oddball_up.png></td></tr></table>","87","1","","","","","","","","","","","","","","","","","",""
"","html-keyboard-response",126,434226.064344991,"0.0-6.0-1.21-1.21",87,19,"f",1666810671367,750,"q","q","Only if I get the answer right","You win money","A fixed time limit",5,"female","I was mostly looking in the middle","no",1,0,0,0,0,1,1,2,1,0,1,1,0,0,0,0,0,0,2,1,0,1,2,2,0,0,0,0,0,2,2,0,1,0,0,1,0,0,1,0,0,2,2,0,0,0,0,2,2,1,1,2,1,3,2,1,2,1,2,1,4,1,2,"416.164344895872","","w","","true","0","21","up","down","1","w","1","0","1666811106049.06","","","false","60","21","0.316666666666667","0.02","false"
"","html-keyboard-response",127,434808,"0.0-6.0-1.22-0.22",87,19,"f",1666810671367,750,"q","q","Only if I get the answer right","You win money","A fixed time limit",5,"female","I was mostly looking in the middle","no",1,0,0,0,0,1,1,2,1,0,1,1,0,0,0,0,0,0,2,1,0,1,2,2,0,0,0,0,0,2,2,0,1,0,0,1,0,0,1,0,0,2,2,0,0,0,0,2,2,1,1,2,1,3,2,1,2,1,2,1,4,1,2,"543.2999999523163","<div style=""color:green; font-size:75px;""><b>$0.02</b></div><br><br><br><br><table><tr><td><img src=static/images/oddball_down.png></td><td><img src=static/images/oddball_down.png></td><td><img src=static/images/oddball_up.png></td></tr></table>","69","1","","","","","","","","","","","","","","","","","",""
"","html-keyboard-response",128,434728.568864359,"0.0-6.0-1.22-1.22",87,19,"f",1666810671367,750,"q","q","Only if I get the answer right","You win money","A fixed time limit",5,"female","I was mostly looking in the middle","no",1,0,0,0,0,1,1,2,1,0,1,1,0,0,0,0,0,0,2,1,0,1,2,2,0,0,0,0,0,2,2,0,1,0,0,1,0,0,1,0,0,2,2,0,0,0,0,2,2,1,1,2,1,3,2,1,2,1,2,1,4,1,2,"354.86886431096","","e","","true","0","22","down","up","2","e","1","0","1666811106551.57","","","false","60","22","0.333333333333333","0.02","false"
"","html-keyboard-response",129,435399,"0.0-6.0-1.23-0.23",87,19,"f",1666810671367,750,"q","q","Only if I get the answer right","You win money","A fixed time limit",5,"female","I was mostly looking in the middle","no",1,0,0,0,0,1,1,2,1,0,1,1,0,0,0,0,0,0,2,1,0,1,2,2,0,0,0,0,0,2,2,0,1,0,0,1,0,0,1,0,0,2,2,0,0,0,0,2,2,1,1,2,1,3,2,1,2,1,2,1,4,1,2,"481.5","<div style=""color:green; font-size:75px;""><b>$0.02</b></div><br><br><br><br><table><tr><td><img src=static/images/oddball_down.png></td><td><img src=static/images/oddball_down.png></td><td><img src=static/images/oddball_up.png></td></tr></table>","69","1","","","","","","","","","","","","","","","","","",""
"","html-keyboard-response",130,435513.018656412,"0.0-6.0-1.23-1.23",87,19,"f",1666810671367,750,"q","q","Only if I get the answer right","You win money","A fixed time limit",5,"female","I was mostly looking in the middle","no",1,0,0,0,0,1,1,2,1,0,1,1,0,0,0,0,0,0,2,1,0,1,2,2,0,0,0,0,0,2,2,0,1,0,0,1,0,0,1,0,0,2,2,0,0,0,0,2,2,1,1,2,1,3,2,1,2,1,2,1,4,1,2,"493.51866","","e","","true","0","23","down","up","2","e","1","0","1666811107336.02","","","false","60","23","0.35","0.02","false"
"","html-keyboard-response",131,435959,"0.0-6.0-1.24-0.24",87,19,"f",1666810671367,750,"q","q","Only if I get the answer right","You win money","A fixed time limit",5,"female","I was mostly looking in the middle","no",1,0,0,0,0,1,1,2,1,0,1,1,0,0,0,0,0,0,2,1,0,1,2,2,0,0,0,0,0,2,2,0,1,0,0,1,0,0,1,0,0,2,2,0,0,0,0,2,2,1,1,2,1,3,2,1,2,1,2,1,4,1,2,"457.69999980926514","<div style=""color:green; font-size:75px;""><b>$0.02</b></div><br><br><br><br><table><tr><td><img src=static/images/oddball_down.png></td><td><img src=static/images/oddball_down.png></td><td><img src=static/images/oddball_up.png></td></tr></table>","69","1","","","","","","","","","","","","","","","","","",""
"","html-keyboard-response",132,436032.895861404,"0.0-6.0-1.24-1.24",87,19,"f",1666810671367,750,"q","q","Only if I get the answer right","You win money","A fixed time limit",5,"female","I was mostly looking in the middle","no",1,0,0,0,0,1,1,2,1,0,1,1,0,0,0,0,0,0,2,1,0,1,2,2,0,0,0,0,0,2,2,0,1,0,0,1,0,0,1,0,0,2,2,0,0,0,0,2,2,1,1,2,1,3,2,1,2,1,2,1,4,1,2,"421.595861213288","","e","","true","0","24","down","up","2","e","1","0","1666811107856.9","","","false","60","24","0.366666666666667","0.02","false"
"","html-keyboard-response",133,436471,"0.0-6.0-1.25-0.25",87,19,"f",1666810671367,750,"q","q","Only if I get the answer right","You win money","A fixed time limit",5,"female","I was mostly looking in the middle","no",1,0,0,0,0,1,1,2,1,0,1,1,0,0,0,0,0,0,2,1,0,1,2,2,0,0,0,0,0,2,2,0,1,0,0,1,0,0,1,0,0,2,2,0,0,0,0,2,2,1,1,2,1,3,2,1,2,1,2,1,4,1,2,"401","<div style=""color:green; font-size:75px;""><b>$0.02</b></div><br><br><br><br><table><tr><td><img src=static/images/oddball_down.png></td><td><img src=static/images/oddball_down.png></td><td><img src=static/images/oddball_up.png></td></tr></table>","69","1","","","","","","","","","","","","","","","","","",""
"","html-keyboard-response",134,436544.488201291,"0.0-6.0-1.25-1.25",87,19,"f",1666810671367,750,"q","q","Only if I get the answer right","You win money","A fixed time limit",5,"female","I was mostly looking in the middle","no",1,0,0,0,0,1,1,2,1,0,1,1,0,0,0,0,0,0,2,1,0,1,2,2,0,0,0,0,0,2,2,0,1,0,0,1,0,0,1,0,0,2,2,0,0,0,0,2,2,1,1,2,1,3,2,1,2,1,2,1,4,1,2,"358.488","","e","","true","0","25","down","up","2","e","1","0","1666811108368.49","","","false","60","25","0.383333333333333","0.02","false"
"","html-keyboard-response",135,436999,"0.0-6.0-1.26-0.26",87,19,"f",1666810671367,750,"q","q","Only if I get the answer right","You win money","A fixed time limit",5,"female","I was mostly looking in the middle","no",1,0,0,0,0,1,1,2,1,0,1,1,0,0,0,0,0,0,2,1,0,1,2,2,0,0,0,0,0,2,2,0,1,0,0,1,0,0,1,0,0,2,2,0,0,0,0,2,2,1,1,2,1,3,2,1,2,1,2,1,4,1,2,"411","<div style=""color:green; font-size:75px;""><b>$0.02</b></div><br><br><br><br><table><tr><td><img src=static/images/oddball_down.png></td><td><img src=static/images/oddball_down.png></td><td><img src=static/images/oddball_up.png></td></tr></table>","69","1","","","","","","","","","","","","","","","","","",""
"","html-keyboard-response",136,437010.678364904,"0.0-6.0-1.26-1.26",87,19,"f",1666810671367,750,"q","q","Only if I get the answer right","You win money","A fixed time limit",5,"female","I was mostly looking in the middle","no",1,0,0,0,0,1,1,2,1,0,1,1,0,0,0,0,0,0,2,1,0,1,2,2,0,0,0,0,0,2,2,0,1,0,0,1,0,0,1,0,0,2,2,0,0,0,0,2,2,1,1,2,1,3,2,1,2,1,2,1,4,1,2,"317.678","","e","","true","0","26","down","up","2","e","1","0","1666811108833.68","","","false","60","26","0.4","0.02","false"
"","html-keyboard-response",137,437575,"0.0-6.0-1.27-0.27",87,19,"f",1666810671367,750,"q","q","Only if I get the answer right","You win money","A fixed time limit",5,"female","I was mostly looking in the middle","no",1,0,0,0,0,1,1,2,1,0,1,1,0,0,0,0,0,0,2,1,0,1,2,2,0,0,0,0,0,2,2,0,1,0,0,1,0,0,1,0,0,2,2,0,0,0,0,2,2,1,1,2,1,3,2,1,2,1,2,1,4,1,2,"471.2999999523163","<div style=""color:green; font-size:75px;""><b>$0.02</b></div><br><br><br><br><table><tr><td><img src=static/images/oddball_up.png></td><td><img src=static/images/oddball_down.png></td><td><img src=static/images/oddball_up.png></td></tr></table>","87","1","","","","","","","","","","","","","","","","","",""
"","html-keyboard-response",138,437542.603228702,"0.0-6.0-1.27-1.27",87,19,"f",1666810671367,750,"q","q","Only if I get the answer right","You win money","A fixed time limit",5,"female","I was mostly looking in the middle","no",1,0,0,0,0,1,1,2,1,0,1,1,0,0,0,0,0,0,2,1,0,1,2,2,0,0,0,0,0,2,2,0,1,0,0,1,0,0,1,0,0,2,2,0,0,0,0,2,2,1,1,2,1,3,2,1,2,1,2,1,4,1,2,"323.903228654381","","w","","true","0","27","up","down","1","w","1","0","1666811109365.6","","","false","60","27","0.416666666666667","0.02","false"
"","html-keyboard-response",139,438451,"0.0-6.0-1.28-0.28",87,19,"f",1666810671367,750,"q","q","Only if I get the answer right","You win money","A fixed time limit",5,"female","I was mostly looking in the middle","no",1,0,0,0,0,1,1,2,1,0,1,1,0,0,0,0,0,0,2,1,0,1,2,2,0,0,0,0,0,2,2,0,1,0,0,1,0,0,1,0,0,2,2,0,0,0,0,2,2,1,1,2,1,3,2,1,2,1,2,1,4,1,2,"null","<div style=""color:green; font-size:75px;""><b>$0.02</b></div><br><br><br><br><table><tr><td><img src=static/images/oddball_up.png></td><td><img src=static/images/oddball_up.png></td><td><img src=static/images/oddball_down.png></td></tr></table>","null","","","","","","","","","","","","","","","","","","",""
"","html-keyboard-response",140,438631,"0.0-6.0-1.28-1.28",87,19,"f",1666810671367,750,"q","q","Only if I get the answer right","You win money","A fixed time limit",5,"female","I was mostly looking in the middle","no",1,0,0,0,0,1,1,2,1,0,1,1,0,0,0,0,0,0,2,1,0,1,2,2,0,0,0,0,0,2,2,0,1,0,0,1,0,0,1,0,0,2,2,0,0,0,0,2,2,1,1,2,1,3,2,1,2,1,2,1,4,1,2,"null","","null","1","true","0","28","up","down","2","e","0","0","1666811110454","","","false","60","28","0.416666666666667","0.02","true"
"","html-keyboard-response",141,439223,"0.0-6.0-1.29-0.29",87,19,"f",1666810671367,750,"q","q","Only if I get the answer right","You win money","A fixed time limit",5,"female","I was mostly looking in the middle","no",1,0,0,0,0,1,1,2,1,0,1,1,0,0,0,0,0,0,2,1,0,1,2,2,0,0,0,0,0,2,2,0,1,0,0,1,0,0,1,0,0,2,2,0,0,0,0,2,2,1,1,2,1,3,2,1,2,1,2,1,4,1,2,"591.3999998569489","<div style=""color:green; font-size:75px;""><b>$0.02</b></div><br><br><br><br><table><tr><td><img src=static/images/oddball_up.png></td><td><img src=static/images/oddball_up.png></td><td><img src=static/images/oddball_down.png></td></tr></table>","69","1","","","","","","","","","","","","","","","","","",""
"","html-keyboard-response",142,439384.684768545,"0.0-6.0-1.29-1.29",87,19,"f",1666810671367,750,"q","q","Only if I get the answer right","You win money","A fixed time limit",5,"female","I was mostly looking in the middle","no",1,0,0,0,0,1,1,2,1,0,1,1,0,0,0,0,0,0,2,1,0,1,2,2,0,0,0,0,0,2,2,0,1,0,0,1,0,0,1,0,0,2,2,0,0,0,0,2,2,1,1,2,1,3,2,1,2,1,2,1,4,1,2,"651.084768402019","","e","","true","0","29","up","down","2","e","1","0","1666811111207.68","","","false","60","29","0.416666666666667","0.02","false"
"","html-keyboard-response",143,439913,"0.0-6.0-1.30-0.30",87,19,"f",1666810671367,750,"q","q","Only if I get the answer right","You win money","A fixed time limit",5,"female","I was mostly looking in the middle","no",1,0,0,0,0,1,1,2,1,0,1,1,0,0,0,0,0,0,2,1,0,1,2,2,0,0,0,0,0,2,2,0,1,0,0,1,0,0,1,0,0,2,2,0,0,0,0,2,2,1,1,2,1,3,2,1,2,1,2,1,4,1,2,"561.7999999523163","<div style=""color:green; font-size:75px;""><b>$0.02</b></div><br><br><br><br><table><tr><td><img src=static/images/oddball_down.png></td><td><img src=static/images/oddball_up.png></td><td><img src=static/images/oddball_up.png></td></tr></table>","81","1","","","","","","","","","","","","","","","","","",""
"","html-keyboard-response",144,440044.590211956,"0.0-6.0-1.30-1.30",87,19,"f",1666810671367,750,"q","q","Only if I get the answer right","You win money","A fixed time limit",5,"female","I was mostly looking in the middle","no",1,0,0,0,0,1,1,2,1,0,1,1,0,0,0,0,0,0,2,1,0,1,2,2,0,0,0,0,0,2,2,0,1,0,0,1,0,0,1,0,0,2,2,0,0,0,0,2,2,1,1,2,1,3,2,1,2,1,2,1,4,1,2,"580.390211908397","","q","","true","0","30","up","down","0","q","1","0","1666811111867.59","","","false","60","30","0.433333333333333","0.02","false"
"","html-keyboard-response",145,440471,"0.0-6.0-1.31-0.31",87,19,"f",1666810671367,750,"q","q","Only if I get the answer right","You win money","A fixed time limit",5,"female","I was mostly looking in the middle","no",1,0,0,0,0,1,1,2,1,0,1,1,0,0,0,0,0,0,2,1,0,1,2,2,0,0,0,0,0,2,2,0,1,0,0,1,0,0,1,0,0,2,2,0,0,0,0,2,2,1,1,2,1,3,2,1,2,1,2,1,4,1,2,"444.2999999523163","<div style=""color:green; font-size:75px;""><b>$0.02</b></div><br><br><br><br><table><tr><td><img src=static/images/oddball_up.png></td><td><img src=static/images/oddball_down.png></td><td><img src=static/images/oddball_up.png></td></tr></table>","87","1","","","","","","","","","","","","","","","","","",""
"","html-keyboard-response",146,440594.314018677,"0.0-6.0-1.31-1.31",87,19,"f",1666810671367,750,"q","q","Only if I get the answer right","You win money","A fixed time limit",5,"female","I was mostly looking in the middle","no",1,0,0,0,0,1,1,2,1,0,1,1,0,0,0,0,0,0,2,1,0,1,2,2,0,0,0,0,0,2,2,0,1,0,0,1,0,0,1,0,0,2,2,0,0,0,0,2,2,1,1,2,1,3,2,1,2,1,2,1,4,1,2,"460.614018629529","","w","","true","0","31","up","down","1","w","1","0","1666811112417.31","","","false","60","31","0.45","0.02","false"
"","html-keyboard-response",147,441039,"0.0-6.0-1.32-0.32",87,19,"f",1666810671367,750,"q","q","Only if I get the answer right","You win money","A fixed time limit",5,"female","I was mostly looking in the middle","no",1,0,0,0,0,1,1,2,1,0,1,1,0,0,0,0,0,0,2,1,0,1,2,2,0,0,0,0,0,2,2,0,1,0,0,1,0,0,1,0,0,2,2,0,0,0,0,2,2,1,1,2,1,3,2,1,2,1,2,1,4,1,2,"460.60000014305115","<div style=""color:green; font-size:75px;""><b>$0.02</b></div><br><br><br><br><table><tr><td><img src=static/images/oddball_up.png></td><td><img src=static/images/oddball_down.png></td><td><img src=static/images/oddball_down.png></td></tr></table>","81","1","","","","","","","","","","","","","","","","","",""
"","html-keyboard-response",148,441100.222213195,"0.0-6.0-1.32-1.32",87,19,"f",1666810671367,750,"q","q","Only if I get the answer right","You win money","A fixed time limit",5,"female","I was mostly looking in the middle","no",1,0,0,0,0,1,1,2,1,0,1,1,0,0,0,0,0,0,2,1,0,1,2,2,0,0,0,0,0,2,2,0,1,0,0,1,0,0,1,0,0,2,2,0,0,0,0,2,2,1,1,2,1,3,2,1,2,1,2,1,4,1,2,"415.822213338404","","q","","true","0","32","down","up","0","q","1","0","1666811112923.22","","","false","60","32","0.466666666666667","0.02","false"
"","html-keyboard-response",149,441727,"0.0-6.0-1.33-0.33",87,19,"f",1666810671367,750,"q","q","Only if I get the answer right","You win money","A fixed time limit",5,"female","I was mostly looking in the middle","no",1,0,0,0,0,1,1,2,1,0,1,1,0,0,0,0,0,0,2,1,0,1,2,2,0,0,0,0,0,2,2,0,1,0,0,1,0,0,1,0,0,2,2,0,0,0,0,2,2,1,1,2,1,3,2,1,2,1,2,1,4,1,2,"581.7999999523163","<div style=""color:green; font-size:75px;""><b>$0.02</b></div><br><br><br><br><table><tr><td><img src=static/images/oddball_up.png></td><td><img src=static/images/oddball_down.png></td><td><img src=static/images/oddball_up.png></td></tr></table>","87","1","","","","","","","","","","","","","","","","","",""
"","html-keyboard-response",150,441933.054009872,"0.0-6.0-1.33-1.33",87,19,"f",1666810671367,750,"q","q","Only if I get the answer right","You win money","A fixed time limit",5,"female","I was mostly looking in the middle","no",1,0,0,0,0,1,1,2,1,0,1,1,0,0,0,0,0,0,2,1,0,1,2,2,0,0,0,0,0,2,2,0,1,0,0,1,0,0,1,0,0,2,2,0,0,0,0,2,2,1,1,2,1,3,2,1,2,1,2,1,4,1,2,"684.85400982411","","w","","true","0","33","up","down","1","w","1","0","1666811113756.05","","","false","60","33","0.483333333333333","0.02","false"
"","html-keyboard-response",151,442375,"0.0-6.0-1.34-0.34",87,19,"f",1666810671367,750,"q","q","Only if I get the answer right","You win money","A fixed time limit",5,"female","I was mostly looking in the middle","no",1,0,0,0,0,1,1,2,1,0,1,1,0,0,0,0,0,0,2,1,0,1,2,2,0,0,0,0,0,2,2,0,1,0,0,1,0,0,1,0,0,2,2,0,0,0,0,2,2,1,1,2,1,3,2,1,2,1,2,1,4,1,2,"544.7999999523163","<div style=""color:green; font-size:75px;""><b>$0.02</b></div><br><br><br><br><table><tr><td><img src=static/images/oddball_up.png></td><td><img src=static/images/oddball_up.png></td><td><img src=static/images/oddball_down.png></td></tr></table>","69","1","","","","","","","","","","","","","","","","","",""
"","html-keyboard-response",152,442409.689550964,"0.0-6.0-1.34-1.34",87,19,"f",1666810671367,750,"q","q","Only if I get the answer right","You win money","A fixed time limit",5,"female","I was mostly looking in the middle","no",1,0,0,0,0,1,1,2,1,0,1,1,0,0,0,0,0,0,2,1,0,1,2,2,0,0,0,0,0,2,2,0,1,0,0,1,0,0,1,0,0,2,2,0,0,0,0,2,2,1,1,2,1,3,2,1,2,1,2,1,4,1,2,"473.489550916461","","e","","true","0","34","up","down","2","e","1","0","1666811114232.69","","","false","60","34","0.483333333333333","0.02","false"
"","html-keyboard-response",153,443191,"0.0-6.0-1.35-0.35",87,19,"f",1666810671367,750,"q","q","Only if I get the answer right","You win money","A fixed time limit",5,"female","I was mostly looking in the middle","no",1,0,0,0,0,1,1,2,1,0,1,1,0,0,0,0,0,0,2,1,0,1,2,2,0,0,0,0,0,2,2,0,1,0,0,1,0,0,1,0,0,2,2,0,0,0,0,2,2,1,1,2,1,3,2,1,2,1,2,1,4,1,2,"709.5","<div style=""color:green; font-size:75px;""><b>$0.02</b></div><br><br><br><br><table><tr><td><img src=static/images/oddball_up.png></td><td><img src=static/images/oddball_up.png></td><td><img src=static/images/oddball_down.png></td></tr></table>","69","1","","","","","","","","","","","","","","","","","",""
"","html-keyboard-response",154,443316.107572781,"0.0-6.0-1.35-1.35",87,19,"f",1666810671367,750,"q","q","Only if I get the answer right","You win money","A fixed time limit",5,"female","I was mostly looking in the middle","no",1,0,0,0,0,1,1,2,1,0,1,1,0,0,0,0,0,0,2,1,0,1,2,2,0,0,0,0,0,2,2,0,1,0,0,1,0,0,1,0,0,2,2,0,0,0,0,2,2,1,1,2,1,3,2,1,2,1,2,1,4,1,2,"725.60757","","e","","true","0","35","up","down","2","e","1","0","1666811115139.11","","","false","60","35","0.5","0.02","false"
"","html-keyboard-response",155,444062,"0.0-6.0-1.36-0.36",87,19,"f",1666810671367,750,"q","q","Only if I get the answer right","You win money","A fixed time limit",5,"female","I was mostly looking in the middle","no",1,0,0,0,0,1,1,2,1,0,1,1,0,0,0,0,0,0,2,1,0,1,2,2,0,0,0,0,0,2,2,0,1,0,0,1,0,0,1,0,0,2,2,0,0,0,0,2,2,1,1,2,1,3,2,1,2,1,2,1,4,1,2,"null","<div style=""color:green; font-size:75px;""><b>$0.02</b></div><br><br><br><br><table><tr><td><img src=static/images/oddball_down.png></td><td><img src=static/images/oddball_down.png></td><td><img src=static/images/oddball_up.png></td></tr></table>","null","","","","","","","","","","","","","","","","","","",""
"","html-keyboard-response",156,444171,"0.0-6.0-1.36-1.36",87,19,"f",1666810671367,750,"q","q","Only if I get the answer right","You win money","A fixed time limit",5,"female","I was mostly looking in the middle","no",1,0,0,0,0,1,1,2,1,0,1,1,0,0,0,0,0,0,2,1,0,1,2,2,0,0,0,0,0,2,2,0,1,0,0,1,0,0,1,0,0,2,2,0,0,0,0,2,2,1,1,2,1,3,2,1,2,1,2,1,4,1,2,"null","","null","","true","0","36","down","up","2","e","0","0","1666811115994","","","false","60","36","0.516666666666667","0.02","true"
"","html-keyboard-response",157,444703,"0.0-6.0-1.37-0.37",87,19,"f",1666810671367,750,"q","q","Only if I get the answer right","You win money","A fixed time limit",5,"female","I was mostly looking in the middle","no",1,0,0,0,0,1,1,2,1,0,1,1,0,0,0,0,0,0,2,1,0,1,2,2,0,0,0,0,0,2,2,0,1,0,0,1,0,0,1,0,0,2,2,0,0,0,0,2,2,1,1,2,1,3,2,1,2,1,2,1,4,1,2,"531.5999999046326","<div style=""color:green; font-size:75px;""><b>$0.02</b></div><br><br><br><br><table><tr><td><img src=static/images/oddball_up.png></td><td><img src=static/images/oddball_up.png></td><td><img src=static/images/oddball_down.png></td></tr></table>","69","1","","","","","","","","","","","","","","","","","",""
"","html-keyboard-response",158,444762.826960384,"0.0-6.0-1.37-1.37",87,19,"f",1666810671367,750,"q","q","Only if I get the answer right","You win money","A fixed time limit",5,"female","I was mostly looking in the middle","no",1,0,0,0,0,1,1,2,1,0,1,1,0,0,0,0,0,0,2,1,0,1,2,2,0,0,0,0,0,2,2,0,1,0,0,1,0,0,1,0,0,2,2,0,0,0,0,2,2,1,1,2,1,3,2,1,2,1,2,1,4,1,2,"476.426960289022","","e","","true","0","37","up","down","2","e","1","0","1666811116586.83","","","false","60","37","0.516666666666667","0.02","false"
"","html-keyboard-response",159,445231,"0.0-6.0-1.38-0.38",87,19,"f",1666810671367,750,"q","q","Only if I get the answer right","You win money","A fixed time limit",5,"female","I was mostly looking in the middle","no",1,0,0,0,0,1,1,2,1,0,1,1,0,0,0,0,0,0,2,1,0,1,2,2,0,0,0,0,0,2,2,0,1,0,0,1,0,0,1,0,0,2,2,0,0,0,0,2,2,1,1,2,1,3,2,1,2,1,2,1,4,1,2,"412.09999990463257","<div style=""color:green; font-size:75px;""><b>$0.02</b></div><br><br><br><br><table><tr><td><img src=static/images/oddball_up.png></td><td><img src=static/images/oddball_up.png></td><td><img src=static/images/oddball_down.png></td></tr></table>","69","1","","","","","","","","","","","","","","","","","",""
"","html-keyboard-response",160,445299.223803909,"0.0-6.0-1.38-1.38",87,19,"f",1666810671367,750,"q","q","Only if I get the answer right","You win money","A fixed time limit",5,"female","I was mostly looking in the middle","no",1,0,0,0,0,1,1,2,1,0,1,1,0,0,0,0,0,0,2,1,0,1,2,2,0,0,0,0,0,2,2,0,1,0,0,1,0,0,1,0,0,2,2,0,0,0,0,2,2,1,1,2,1,3,2,1,2,1,2,1,4,1,2,"375.323803813231","","e","","true","0","38","up","down","2","e","1","0","1666811117122.22","","","false","60","38","0.533333333333333","0.02","false"
"","html-keyboard-response",161,445808,"0.0-6.0-1.39-0.39",87,19,"f",1666810671367,750,"q","q","Only if I get the answer right","You win money","A fixed time limit",5,"female","I was mostly looking in the middle","no",1,0,0,0,0,1,1,2,1,0,1,1,0,0,0,0,0,0,2,1,0,1,2,2,0,0,0,0,0,2,2,0,1,0,0,1,0,0,1,0,0,2,2,0,0,0,0,2,2,1,1,2,1,3,2,1,2,1,2,1,4,1,2,"470.5","<div style=""color:green; font-size:75px;""><b>$0.02</b></div><br><br><br><br><table><tr><td><img src=static/images/oddball_down.png></td><td><img src=static/images/oddball_up.png></td><td><img src=static/images/oddball_up.png></td></tr></table>","81","1","","","","","","","","","","","","","","","","","",""
"","html-keyboard-response",162,446060.247913438,"0.0-6.0-1.39-1.39",87,19,"f",1666810671367,750,"q","q","Only if I get the answer right","You win money","A fixed time limit",5,"female","I was mostly looking in the middle","no",1,0,0,0,0,1,1,2,1,0,1,1,0,0,0,0,0,0,2,1,0,1,2,2,0,0,0,0,0,2,2,0,1,0,0,1,0,0,1,0,0,2,2,0,0,0,0,2,2,1,1,2,1,3,2,1,2,1,2,1,4,1,2,"610.74791","","q","","true","0","39","up","down","0","q","1","0","1666811117883.25","","","false","60","39","0.55","0.02","false"
"","html-keyboard-response",163,446511,"0.0-6.0-1.40-0.40",87,19,"f",1666810671367,750,"q","q","Only if I get the answer right","You win money","A fixed time limit",5,"female","I was mostly looking in the middle","no",1,0,0,0,0,1,1,2,1,0,1,1,0,0,0,0,0,0,2,1,0,1,2,2,0,0,0,0,0,2,2,0,1,0,0,1,0,0,1,0,0,2,2,0,0,0,0,2,2,1,1,2,1,3,2,1,2,1,2,1,4,1,2,"590.4000000953674","<div style=""color:green; font-size:75px;""><b>$0.02</b></div><br><br><br><br><table><tr><td><img src=static/images/oddball_down.png></td><td><img src=static/images/oddball_up.png></td><td><img src=static/images/oddball_down.png></td></tr></table>","87","1","","","","","","","","","","","","","","","","","",""
"","html-keyboard-response",164,446459.759243446,"0.0-6.0-1.40-1.40",87,19,"f",1666810671367,750,"q","q","Only if I get the answer right","You win money","A fixed time limit",5,"female","I was mostly looking in the middle","no",1,0,0,0,0,1,1,2,1,0,1,1,0,0,0,0,0,0,2,1,0,1,2,2,0,0,0,0,0,2,2,0,1,0,0,1,0,0,1,0,0,2,2,0,0,0,0,2,2,1,1,2,1,3,2,1,2,1,2,1,4,1,2,"435.159243541429","","w","","true","0","40","down","up","1","w","1","0","1666811118282.76","","","false","60","40","0.566666666666667","0.02","false"
"","html-keyboard-response",165,447063,"0.0-6.0-1.41-0.41",87,19,"f",1666810671367,750,"q","q","Only if I get the answer right","You win money","A fixed time limit",5,"female","I was mostly looking in the middle","no",1,0,0,0,0,1,1,2,1,0,1,1,0,0,0,0,0,0,2,1,0,1,2,2,0,0,0,0,0,2,2,0,1,0,0,1,0,0,1,0,0,2,2,0,0,0,0,2,2,1,1,2,1,3,2,1,2,1,2,1,4,1,2,"447.2999999523163","<div style=""color:green; font-size:75px;""><b>$0.02</b></div><br><br><br><br><table><tr><td><img src=static/images/oddball_up.png></td><td><img src=static/images/oddball_down.png></td><td><img src=static/images/oddball_up.png></td></tr></table>","87","1","","","","","","","","","","","","","","","","","",""
"","html-keyboard-response",166,447151.634938044,"0.0-6.0-1.41-1.41",87,19,"f",1666810671367,750,"q","q","Only if I get the answer right","You win money","A fixed time limit",5,"female","I was mostly looking in the middle","no",1,0,0,0,0,1,1,2,1,0,1,1,0,0,0,0,0,0,2,1,0,1,2,2,0,0,0,0,0,2,2,0,1,0,0,1,0,0,1,0,0,2,2,0,0,0,0,2,2,1,1,2,1,3,2,1,2,1,2,1,4,1,2,"431.934937995858","","w","","true","0","41","up","down","1","w","1","0","1666811118974.64","","","false","60","41","0.583333333333333","0.02","false"
"","html-keyboard-response",167,447647,"0.0-6.0-1.42-0.42",87,19,"f",1666810671367,750,"q","q","Only if I get the answer right","You win money","A fixed time limit",5,"female","I was mostly looking in the middle","no",1,0,0,0,0,1,1,2,1,0,1,1,0,0,0,0,0,0,2,1,0,1,2,2,0,0,0,0,0,2,2,0,1,0,0,1,0,0,1,0,0,2,2,0,0,0,0,2,2,1,1,2,1,3,2,1,2,1,2,1,4,1,2,"479.5","<div style=""color:green; font-size:75px;""><b>$0.02</b></div><br><br><br><br><table><tr><td><img src=static/images/oddball_down.png></td><td><img src=static/images/oddball_up.png></td><td><img src=static/images/oddball_down.png></td></tr></table>","87","1","","","","","","","","","","","","","","","","","",""
"","html-keyboard-response",168,447826.20528304,"0.0-6.0-1.42-1.42",87,19,"f",1666810671367,750,"q","q","Only if I get the answer right","You win money","A fixed time limit",5,"female","I was mostly looking in the middle","no",1,0,0,0,0,1,1,2,1,0,1,1,0,0,0,0,0,0,2,1,0,1,2,2,0,0,0,0,0,2,2,0,1,0,0,1,0,0,1,0,0,2,2,0,0,0,0,2,2,1,1,2,1,3,2,1,2,1,2,1,4,1,2,"548.70528","","w","","true","0","42","down","up","1","w","1","0","1666811119649.21","","","false","60","42","0.6","0.02","false"
"","html-keyboard-response",169,448296,"0.0-6.0-1.43-0.43",87,19,"f",1666810671367,750,"q","q","Only if I get the answer right","You win money","A fixed time limit",5,"female","I was mostly looking in the middle","no",1,0,0,0,0,1,1,2,1,0,1,1,0,0,0,0,0,0,2,1,0,1,2,2,0,0,0,0,0,2,2,0,1,0,0,1,0,0,1,0,0,2,2,0,0,0,0,2,2,1,1,2,1,3,2,1,2,1,2,1,4,1,2,"537.9000000953674","<div style=""color:green; font-size:75px;""><b>$0.02</b></div><br><br><br><br><table><tr><td><img src=static/images/oddball_up.png></td><td><img src=static/images/oddball_up.png></td><td><img src=static/images/oddball_down.png></td></tr></table>","69","1","","","","","","","","","","","","","","","","","",""
"","html-keyboard-response",170,448377.484231896,"0.0-6.0-1.43-1.43",87,19,"f",1666810671367,750,"q","q","Only if I get the answer right","You win money","A fixed time limit",5,"female","I was mostly looking in the middle","no",1,0,0,0,0,1,1,2,1,0,1,1,0,0,0,0,0,0,2,1,0,1,2,2,0,0,0,0,0,2,2,0,1,0,0,1,0,0,1,0,0,2,2,0,0,0,0,2,2,1,1,2,1,3,2,1,2,1,2,1,4,1,2,"505.38423199148","","e","","true","0","43","up","down","2","e","1","0","1666811120200.48","","","false","60","43","0.616666666666667","0.02","false"
"","html-keyboard-response",171,449171,"0.0-6.0-1.44-0.44",87,19,"f",1666810671367,750,"q","q","Only if I get the answer right","You win money","A fixed time limit",5,"female","I was mostly looking in the middle","no",1,0,0,0,0,1,1,2,1,0,1,1,0,0,0,0,0,0,2,1,0,1,2,2,0,0,0,0,0,2,2,0,1,0,0,1,0,0,1,0,0,2,2,0,0,0,0,2,2,1,1,2,1,3,2,1,2,1,2,1,4,1,2,"null","<div style=""color:green; font-size:75px;""><b>$0.02</b></div><br><br><br><br><table><tr><td><img src=static/images/oddball_down.png></td><td><img src=static/images/oddball_up.png></td><td><img src=static/images/oddball_down.png></td></tr></table>","null","","","","","","","","","","","","","","","","","","",""
"","html-keyboard-response",172,449282,"0.0-6.0-1.44-1.44",87,19,"f",1666810671367,750,"q","q","Only if I get the answer right","You win money","A fixed time limit",5,"female","I was mostly looking in the middle","no",1,0,0,0,0,1,1,2,1,0,1,1,0,0,0,0,0,0,2,1,0,1,2,2,0,0,0,0,0,2,2,0,1,0,0,1,0,0,1,0,0,2,2,0,0,0,0,2,2,1,1,2,1,3,2,1,2,1,2,1,4,1,2,"null","","null","","true","0","44","down","up","1","w","0","0","1666811121206","","","false","60","44","0.633333333333333","0.02","true"
"","html-keyboard-response",173,449647,"0.0-6.0-1.45-0.45",87,19,"f",1666810671367,750,"q","q","Only if I get the answer right","You win money","A fixed time limit",5,"female","I was mostly looking in the middle","no",1,0,0,0,0,1,1,2,1,0,1,1,0,0,0,0,0,0,2,1,0,1,2,2,0,0,0,0,0,2,2,0,1,0,0,1,0,0,1,0,0,2,2,0,0,0,0,2,2,1,1,2,1,3,2,1,2,1,2,1,4,1,2,"263.7999999523163","<div style=""color:green; font-size:75px;""><b>$0.02</b></div><br><br><br><br><table><tr><td><img src=static/images/oddball_down.png></td><td><img src=static/images/oddball_down.png></td><td><img src=static/images/oddball_up.png></td></tr></table>","69","1","","","","","","","","","","","","","","","","","",""
"","html-keyboard-response",174,449929.284591693,"0.0-6.0-1.45-1.45",87,19,"f",1666810671367,750,"q","q","Only if I get the answer right","You win money","A fixed time limit",5,"female","I was mostly looking in the middle","no",1,0,0,0,0,1,1,2,1,0,1,1,0,0,0,0,0,0,2,1,0,1,2,2,0,0,0,0,0,2,2,0,1,0,0,1,0,0,1,0,0,2,2,0,0,0,0,2,2,1,1,2,1,3,2,1,2,1,2,1,4,1,2,"432.084591645046","","e","","true","0","45","down","up","2","e","1","0","1666811121752.28","","","false","60","45","0.633333333333333","0.02","false"
"","html-keyboard-response",175,450216,"0.0-6.0-1.46-0.46",87,19,"f",1666810671367,750,"q","q","Only if I get the answer right","You win money","A fixed time limit",5,"female","I was mostly looking in the middle","no",1,0,0,0,0,1,1,2,1,0,1,1,0,0,0,0,0,0,2,1,0,1,2,2,0,0,0,0,0,2,2,0,1,0,0,1,0,0,1,0,0,2,2,0,0,0,0,2,2,1,1,2,1,3,2,1,2,1,2,1,4,1,2,"454.2999999523163","<div style=""color:green; font-size:75px;""><b>$0.02</b></div><br><br><br><br><table><tr><td><img src=static/images/oddball_down.png></td><td><img src=static/images/oddball_up.png></td><td><img src=static/images/oddball_up.png></td></tr></table>","81","1","","","","","","","","","","","","","","","","","",""
"","html-keyboard-response",176,450410.737003165,"0.0-6.0-1.46-1.46",87,19,"f",1666810671367,750,"q","q","Only if I get the answer right","You win money","A fixed time limit",5,"female","I was mostly looking in the middle","no",1,0,0,0,0,1,1,2,1,0,1,1,0,0,0,0,0,0,2,1,0,1,2,2,0,0,0,0,0,2,2,0,1,0,0,1,0,0,1,0,0,2,2,0,0,0,0,2,2,1,1,2,1,3,2,1,2,1,2,1,4,1,2,"535.03700311765","","q","","true","0","46","up","down","0","q","1","0","1666811122233.74","","","false","60","46","0.633333333333333","0.02","false"
"","html-keyboard-response",177,450519,"0.0-6.0-1.47-0.47",87,19,"f",1666810671367,750,"q","q","Only if I get the answer right","You win money","A fixed time limit",5,"female","I was mostly looking in the middle","no",1,0,0,0,0,1,1,2,1,0,1,1,0,0,0,0,0,0,2,1,0,1,2,2,0,0,0,0,0,2,2,0,1,0,0,1,0,0,1,0,0,2,2,0,0,0,0,2,2,1,1,2,1,3,2,1,2,1,2,1,4,1,2,"188.40000009536743","<div style=""color:green; font-size:75px;""><b>$0.02</b></div><br><br><br><br><table><tr><td><img src=static/images/oddball_down.png></td><td><img src=static/images/oddball_up.png></td><td><img src=static/images/oddball_down.png></td></tr></table>","87","1","","","","","","","","","","","","","","","","","",""
"","html-keyboard-response",178,450615.469192931,"0.0-6.0-1.47-1.47",87,19,"f",1666810671367,750,"q","q","Only if I get the answer right","You win money","A fixed time limit",5,"female","I was mostly looking in the middle","no",1,0,0,0,0,1,1,2,1,0,1,1,0,0,0,0,0,0,2,1,0,1,2,2,0,0,0,0,0,2,2,0,1,0,0,1,0,0,1,0,0,2,2,0,0,0,0,2,2,1,1,2,1,3,2,1,2,1,2,1,4,1,2,"173.869193026352","","w","","true","0","47","down","up","1","w","1","0","1666811122438.47","","","false","60","47","0.633333333333333","0.02","false"
"","html-keyboard-response",179,450975,"0.0-6.0-1.48-0.48",87,19,"f",1666810671367,750,"q","q","Only if I get the answer right","You win money","A fixed time limit",5,"female","I was mostly looking in the middle","no",1,0,0,0,0,1,1,2,1,0,1,1,0,0,0,0,0,0,2,1,0,1,2,2,0,0,0,0,0,2,2,0,1,0,0,1,0,0,1,0,0,2,2,0,0,0,0,2,2,1,1,2,1,3,2,1,2,1,2,1,4,1,2,"344","<div style=""color:green; font-size:75px;""><b>$0.02</b></div><br><br><br><br><table><tr><td><img src=static/images/oddball_down.png></td><td><img src=static/images/oddball_up.png></td><td><img src=static/images/oddball_down.png></td></tr></table>","87","1","","","","","","","","","","","","","","","","","",""
"","html-keyboard-response",180,451139.85221598,"0.0-6.0-1.48-1.48",87,19,"f",1666810671367,750,"q","q","Only if I get the answer right","You win money","A fixed time limit",5,"female","I was mostly looking in the middle","no",1,0,0,0,0,1,1,2,1,0,1,1,0,0,0,0,0,0,2,1,0,1,2,2,0,0,0,0,0,2,2,0,1,0,0,1,0,0,1,0,0,2,2,0,0,0,0,2,2,1,1,2,1,3,2,1,2,1,2,1,4,1,2,"403.852","","w","","true","0","48","down","up","1","w","1","0","1666811122962.85","","","false","60","48","0.65","0.02","false"
"","html-keyboard-response",181,451471,"0.0-6.0-1.49-0.49",87,19,"f",1666810671367,750,"q","q","Only if I get the answer right","You win money","A fixed time limit",5,"female","I was mostly looking in the middle","no",1,0,0,0,0,1,1,2,1,0,1,1,0,0,0,0,0,0,2,1,0,1,2,2,0,0,0,0,0,2,2,0,1,0,0,1,0,0,1,0,0,2,2,0,0,0,0,2,2,1,1,2,1,3,2,1,2,1,2,1,4,1,2,"391","<div style=""color:green; font-size:75px;""><b>$0.02</b></div><br><br><br><br><table><tr><td><img src=static/images/oddball_up.png></td><td><img src=static/images/oddball_down.png></td><td><img src=static/images/oddball_down.png></td></tr></table>","81","1","","","","","","","","","","","","","","","","","",""
