"success","trial_type","trial_index","time_elapsed","internal_node_id","subject","age","sex","date","deadline","instQ1","instQ2","instQ3","instQ4","instQ5","totalInstQ","gender","strategy","comments","DASS1_s","DASS2_a","DASS3_d","DASS4_a","DASS5_d","DASS6_s","DASS7_a","DASS8_s","DASS9_a","DASS10_d","DASS11_s","DASS12_s","DASS13_d","DASS14_s","DASS15_a","DASS16_d","DASS17_d","DASS18_s","DASS19_a","DASS20_a","DASS21_d","BB1","BB2","BB3","BB4","BB5","BB6","BB7","BB8","BB9","BB10","BB11","BB12","BB13","BB14","BB15","BB16","BB17","BB18","BB19","BB20","BB21","BB22","BB23","BB24","NFC1","NFC2","NFC3","NFC4","NFC5","NFC6","NFC7","NFC8","NFC9","NFC10","NFC11","NFC12","NFC13","NFC14","NFC15","NFC16","NFC17","NFC18","rt","stimulus","key_press","npress","isDataTrial","block","trialinblock","common","odd","oddidx","correct_ans","accuracy","totalTokens","timestamp","responses","question_order","showprog","blocklen","trial","progress","reward","timedout"
"true","fullscreen","0","41518","0.0-0.0","086","19","f","1666624363002","750","q","q","Only if I get the answer right","You win money","A fixed time limit","5","female","No","No","1","1","1","0","1","0","0","1","0","0","0","0","0","0","0","0","0","0","0","0","0","1","3","2","1","2","0","0","0","2","1","1","3","1","1","2","1","0","1","1","2","2","2","0","0","1","0","3","3","1","1","3","3","4","0","1","4","0","4","0","4","1","3","","","","","","","","","","","","","","","","","","","","","",""
"","image-keyboard-response","1","70170","0.0-1.0-0.0","086","19","f","1666624363002","750","q","q","Only if I get the answer right","You win money","A fixed time limit","5","female","No","No","1","1","1","0","1","0","0","1","0","0","0","0","0","0","0","0","0","0","0","0","0","1","3","2","1","2","0","0","0","2","1","1","3","1","1","2","1","0","1","1","2","2","2","0","0","1","0","3","3","1","1","3","3","4","0","1","4","0","4","0","4","1","3","28634.799999952316","static/images/instructions/Slide1.png","39","","","","","","","","","","","","","","","","","","",""
"","image-keyboard-response","2","78063","0.0-1.1-0.1","086","19","f","1666624363002","750","q","q","Only if I get the answer right","You win money","A fixed time limit","5","female","No","No","1","1","1","0","1","0","0","1","0","0","0","0","0","0","0","0","0","0","0","0","0","1","3","2","1","2","0","0","0","2","1","1","3","1","1","2","1","0","1","1","2","2","2","0","0","1","0","3","3","1","1","3","3","4","0","1","4","0","4","0","4","1","3","7890.200000047684","static/images/instructions/Slide2.png","39","","","","","","","","","","","","","","","","","","",""
"","image-keyboard-response","3","82823","0.0-1.2-0.2","086","19","f","1666624363002","750","q","q","Only if I get the answer right","You win money","A fixed time limit","5","female","No","No","1","1","1","0","1","0","0","1","0","0","0","0","0","0","0","0","0","0","0","0","0","1","3","2","1","2","0","0","0","2","1","1","3","1","1","2","1","0","1","1","2","2","2","0","0","1","0","3","3","1","1","3","3","4","0","1","4","0","4","0","4","1","3","4759.300000071526","static/images/instructions/Slide3.png","39","","","","","","","","","","","","","","","","","","",""
"","image-keyboard-response","4","84599","0.0-1.3-0.3","086","19","f","1666624363002","750","q","q","Only if I get the answer right","You win money","A fixed time limit","5","female","No","No","1","1","1","0","1","0","0","1","0","0","0","0","0","0","0","0","0","0","0","0","0","1","3","2","1","2","0","0","0","2","1","1","3","1","1","2","1","0","1","1","2","2","2","0","0","1","0","3","3","1","1","3","3","4","0","1","4","0","4","0","4","1","3","1775.1000000238419","static/images/instructions/Slide4.png","39","","","","","","","","","","","","","","","","","","",""
"","image-keyboard-response","5","95031","0.0-1.4-0.4","086","19","f","1666624363002","750","q","q","Only if I get the answer right","You win money","A fixed time limit","5","female","No","No","1","1","1","0","1","0","0","1","0","0","0","0","0","0","0","0","0","0","0","0","0","1","3","2","1","2","0","0","0","2","1","1","3","1","1","2","1","0","1","1","2","2","2","0","0","1","0","3","3","1","1","3","3","4","0","1","4","0","4","0","4","1","3","10422.700000047684","static/images/instructions/Slide5.png","39","","","","","","","","","","","","","","","","","","",""
"","image-keyboard-response","6","97263","0.0-1.5-0.5","086","19","f","1666624363002","750","q","q","Only if I get the answer right","You win money","A fixed time limit","5","female","No","No","1","1","1","0","1","0","0","1","0","0","0","0","0","0","0","0","0","0","0","0","0","1","3","2","1","2","0","0","0","2","1","1","3","1","1","2","1","0","1","1","2","2","2","0","0","1","0","3","3","1","1","3","3","4","0","1","4","0","4","0","4","1","3","2231.5","static/images/instructions/Slide6.png","39","","","","","","","","","","","","","","","","","","",""
"","image-keyboard-response","7","112015","0.0-1.6-0.6","086","19","f","1666624363002","750","q","q","Only if I get the answer right","You win money","A fixed time limit","5","female","No","No","1","1","1","0","1","0","0","1","0","0","0","0","0","0","0","0","0","0","0","0","0","1","3","2","1","2","0","0","0","2","1","1","3","1","1","2","1","0","1","1","2","2","2","0","0","1","0","3","3","1","1","3","3","4","0","1","4","0","4","0","4","1","3","14751.299999952316","static/images/instructions/Slide7.png","39","","","","","","","","","","","","","","","","","","",""
"","html-keyboard-response","8","113247","0.0-2.0-0.0","086","19","f","1666624363002","750","q","q","Only if I get the answer right","You win money","A fixed time limit","5","female","No","No","1","1","1","0","1","0","0","1","0","0","0","0","0","0","0","0","0","0","0","0","0","1","3","2","1","2","0","0","0","2","1","1","3","1","1","2","1","0","1","1","2","2","2","0","0","1","0","3","3","1","1","3","3","4","0","1","4","0","4","0","4","1","3","1231","<br><br><br><br><table><tr><td><img src=static/images/oddball_up.png></td><td><img src=static/images/oddball_down.png></td><td><img src=static/images/oddball_up.png></td></tr></table>","87","1","","","","","","","","","","","","","","","","","",""
"","html-keyboard-response","9","115753","0.0-2.0-1.0","086","19","f","1666624363002","750","q","q","Only if I get the answer right","You win money","A fixed time limit","5","female","No","No","1","1","1","0","1","0","0","1","0","0","0","0","0","0","0","0","0","0","0","0","0","1","3","2","1","2","0","0","0","2","1","1","3","1","1","2","1","0","1","1","2","2","2","0","0","1","0","3","3","1","1","3","3","4","0","1","4","0","4","0","4","1","3","null","<div style=""font-size:75px;""><b>Correct</b></div>","null","","","","","","","","","","","","","","","","","","",""
"","html-keyboard-response","10","116760","0.0-2.0-2.0","086","19","f","1666624363002","750","q","q","Only if I get the answer right","You win money","A fixed time limit","5","female","No","No","1","1","1","0","1","0","0","1","0","0","0","0","0","0","0","0","0","0","0","0","0","1","3","2","1","2","0","0","0","2","1","1","3","1","1","2","1","0","1","1","2","2","2","0","0","1","0","3","3","1","1","3","3","4","0","1","4","0","4","0","4","1","3","1231","","w","","true","practice","0","up","down","1","w","1","0","1666624480733","","","","","","","",""
"","html-keyboard-response","11","117470","0.0-2.1-0.1","086","19","f","1666624363002","750","q","q","Only if I get the answer right","You win money","A fixed time limit","5","female","No","No","1","1","1","0","1","0","0","1","0","0","0","0","0","0","0","0","0","0","0","0","0","1","3","2","1","2","0","0","0","2","1","1","3","1","1","2","1","0","1","1","2","2","2","0","0","1","0","3","3","1","1","3","3","4","0","1","4","0","4","0","4","1","3","709.6999999284744","<br><br><br><br><table><tr><td><img src=static/images/oddball_down.png></td><td><img src=static/images/oddball_up.png></td><td><img src=static/images/oddball_up.png></td></tr></table>","81","1","","","","","","","","","","","","","","","","","",""
"","html-keyboard-response","12","119979","0.0-2.1-1.1","086","19","f","1666624363002","750","q","q","Only if I get the answer right","You win money","A fixed time limit","5","female","No","No","1","1","1","0","1","0","0","1","0","0","0","0","0","0","0","0","0","0","0","0","0","1","3","2","1","2","0","0","0","2","1","1","3","1","1","2","1","0","1","1","2","2","2","0","0","1","0","3","3","1","1","3","3","4","0","1","4","0","4","0","4","1","3","null","<div style=""font-size:75px;""><b>Correct</b></div>","null","","","","","","","","","","","","","","","","","","",""
"","html-keyboard-response","13","120984","0.0-2.1-2.1","086","19","f","1666624363002","750","q","q","Only if I get the answer right","You win money","A fixed time limit","5","female","No","No","1","1","1","0","1","0","0","1","0","0","0","0","0","0","0","0","0","0","0","0","0","1","3","2","1","2","0","0","0","2","1","1","3","1","1","2","1","0","1","1","2","2","2","0","0","1","0","3","3","1","1","3","3","4","0","1","4","0","4","0","4","1","3","709.6999999284744","","q","","true","practice","1","up","down","0","q","1","0","1666624484957","","","","","","","",""
"","html-keyboard-response","14","122014","0.0-2.2-0.2","086","19","f","1666624363002","750","q","q","Only if I get the answer right","You win money","A fixed time limit","5","female","No","No","1","1","1","0","1","0","0","1","0","0","0","0","0","0","0","0","0","0","0","0","0","1","3","2","1","2","0","0","0","2","1","1","3","1","1","2","1","0","1","1","2","2","2","0","0","1","0","3","3","1","1","3","3","4","0","1","4","0","4","0","4","1","3","1029.8999999761581","<br><br><br><br><table><tr><td><img src=static/images/oddball_up.png></td><td><img src=static/images/oddball_down.png></td><td><img src=static/images/oddball_down.png></td></tr></table>","81","1","","","","","","","","","","","","","","","","","",""
"","html-keyboard-response","15","124521","0.0-2.2-1.2","086","19","f","1666624363002","750","q","q","Only if I get the answer right","You win money","A fixed time limit","5","female","No","No","1","1","1","0","1","0","0","1","0","0","0","0","0","0","0","0","0","0","0","0","0","1","3","2","1","2","0","0","0","2","1","1","3","1","1","2","1","0","1","1","2","2","2","0","0","1","0","3","3","1","1","3","3","4","0","1","4","0","4","0","4","1","3","null","<div style=""font-size:75px;""><b>Correct</b></div>","null","","","","","","","","","","","","","","","","","","",""
"","html-keyboard-response","16","125526","0.0-2.2-2.2","086","19","f","1666624363002","750","q","q","Only if I get the answer right","You win money","A fixed time limit","5","female","No","No","1","1","1","0","1","0","0","1","0","0","0","0","0","0","0","0","0","0","0","0","0","1","3","2","1","2","0","0","0","2","1","1","3","1","1","2","1","0","1","1","2","2","2","0","0","1","0","3","3","1","1","3","3","4","0","1","4","0","4","0","4","1","3","1029.8999999761581","","q","","true","practice","2","down","up","0","q","1","0","1666624489499","","","","","","","",""
"","html-keyboard-response","17","126310","0.0-2.3-0.3","086","19","f","1666624363002","750","q","q","Only if I get the answer right","You win money","A fixed time limit","5","female","No","No","1","1","1","0","1","0","0","1","0","0","0","0","0","0","0","0","0","0","0","0","0","1","3","2","1","2","0","0","0","2","1","1","3","1","1","2","1","0","1","1","2","2","2","0","0","1","0","3","3","1","1","3","3","4","0","1","4","0","4","0","4","1","3","783.6000000238419","<br><br><br><br><table><tr><td><img src=static/images/oddball_up.png></td><td><img src=static/images/oddball_down.png></td><td><img src=static/images/oddball_down.png></td></tr></table>","81","1","","","","","","","","","","","","","","","","","",""
"","html-keyboard-response","18","128814","0.0-2.3-1.3","086","19","f","1666624363002","750","q","q","Only if I get the answer right","You win money","A fixed time limit","5","female","No","No","1","1","1","0","1","0","0","1","0","0","0","0","0","0","0","0","0","0","0","0","0","1","3","2","1","2","0","0","0","2","1","1","3","1","1","2","1","0","1","1","2","2","2","0","0","1","0","3","3","1","1","3","3","4","0","1","4","0","4","0","4","1","3","null","<div style=""font-size:75px;""><b>Correct</b></div>","null","","","","","","","","","","","","","","","","","","",""
"","html-keyboard-response","19","129818","0.0-2.3-2.3","086","19","f","1666624363002","750","q","q","Only if I get the answer right","You win money","A fixed time limit","5","female","No","No","1","1","1","0","1","0","0","1","0","0","0","0","0","0","0","0","0","0","0","0","0","1","3","2","1","2","0","0","0","2","1","1","3","1","1","2","1","0","1","1","2","2","2","0","0","1","0","3","3","1","1","3","3","4","0","1","4","0","4","0","4","1","3","783.6000000238419","","q","","true","practice","3","down","up","0","q","1","0","1666624493792","","","","","","","",""
"","html-keyboard-response","20","130702","0.0-2.4-0.4","086","19","f","1666624363002","750","q","q","Only if I get the answer right","You win money","A fixed time limit","5","female","No","No","1","1","1","0","1","0","0","1","0","0","0","0","0","0","0","0","0","0","0","0","0","1","3","2","1","2","0","0","0","2","1","1","3","1","1","2","1","0","1","1","2","2","2","0","0","1","0","3","3","1","1","3","3","4","0","1","4","0","4","0","4","1","3","883.2000000476837","<br><br><br><br><table><tr><td><img src=static/images/oddball_down.png></td><td><img src=static/images/oddball_up.png></td><td><img src=static/images/oddball_down.png></td></tr></table>","87","1","","","","","","","","","","","","","","","","","",""
"","html-keyboard-response","21","133205","0.0-2.4-1.4","086","19","f","1666624363002","750","q","q","Only if I get the answer right","You win money","A fixed time limit","5","female","No","No","1","1","1","0","1","0","0","1","0","0","0","0","0","0","0","0","0","0","0","0","0","1","3","2","1","2","0","0","0","2","1","1","3","1","1","2","1","0","1","1","2","2","2","0","0","1","0","3","3","1","1","3","3","4","0","1","4","0","4","0","4","1","3","null","<div style=""font-size:75px;""><b>Correct</b></div>","null","","","","","","","","","","","","","","","","","","",""
"","html-keyboard-response","22","134210","0.0-2.4-2.4","086","19","f","1666624363002","750","q","q","Only if I get the answer right","You win money","A fixed time limit","5","female","No","No","1","1","1","0","1","0","0","1","0","0","0","0","0","0","0","0","0","0","0","0","0","1","3","2","1","2","0","0","0","2","1","1","3","1","1","2","1","0","1","1","2","2","2","0","0","1","0","3","3","1","1","3","3","4","0","1","4","0","4","0","4","1","3","883.2000000476837","","w","","true","practice","4","down","up","1","w","1","0","1666624498183","","","","","","","",""
"","html-keyboard-response","23","134982","0.0-2.5-0.5","086","19","f","1666624363002","750","q","q","Only if I get the answer right","You win money","A fixed time limit","5","female","No","No","1","1","1","0","1","0","0","1","0","0","0","0","0","0","0","0","0","0","0","0","0","1","3","2","1","2","0","0","0","2","1","1","3","1","1","2","1","0","1","1","2","2","2","0","0","1","0","3","3","1","1","3","3","4","0","1","4","0","4","0","4","1","3","770.8000000715256","<br><br><br><br><table><tr><td><img src=static/images/oddball_up.png></td><td><img src=static/images/oddball_down.png></td><td><img src=static/images/oddball_down.png></td></tr></table>","81","1","","","","","","","","","","","","","","","","","",""
"","html-keyboard-response","24","137496","0.0-2.5-1.5","086","19","f","1666624363002","750","q","q","Only if I get the answer right","You win money","A fixed time limit","5","female","No","No","1","1","1","0","1","0","0","1","0","0","0","0","0","0","0","0","0","0","0","0","0","1","3","2","1","2","0","0","0","2","1","1","3","1","1","2","1","0","1","1","2","2","2","0","0","1","0","3","3","1","1","3","3","4","0","1","4","0","4","0","4","1","3","null","<div style=""font-size:75px;""><b>Correct</b></div>","null","","","","","","","","","","","","","","","","","","",""
"","html-keyboard-response","25","138637","0.0-2.5-2.5","086","19","f","1666624363002","750","q","q","Only if I get the answer right","You win money","A fixed time limit","5","female","No","No","1","1","1","0","1","0","0","1","0","0","0","0","0","0","0","0","0","0","0","0","0","1","3","2","1","2","0","0","0","2","1","1","3","1","1","2","1","0","1","1","2","2","2","0","0","1","0","3","3","1","1","3","3","4","0","1","4","0","4","0","4","1","3","770.8000000715256","","q","","true","practice","5","down","up","0","q","1","0","1666624502610","","","","","","","",""
"","html-keyboard-response","26","139337","0.0-2.6-0.6","086","19","f","1666624363002","750","q","q","Only if I get the answer right","You win money","A fixed time limit","5","female","No","No","1","1","1","0","1","0","0","1","0","0","0","0","0","0","0","0","0","0","0","0","0","1","3","2","1","2","0","0","0","2","1","1","3","1","1","2","1","0","1","1","2","2","2","0","0","1","0","3","3","1","1","3","3","4","0","1","4","0","4","0","4","1","3","700.2000000476837","<br><br><br><br><table><tr><td><img src=static/images/oddball_up.png></td><td><img src=static/images/oddball_up.png></td><td><img src=static/images/oddball_down.png></td></tr></table>","69","1","","","","","","","","","","","","","","","","","",""
"","html-keyboard-response","27","141839","0.0-2.6-1.6","086","19","f","1666624363002","750","q","q","Only if I get the answer right","You win money","A fixed time limit","5","female","No","No","1","1","1","0","1","0","0","1","0","0","0","0","0","0","0","0","0","0","0","0","0","1","3","2","1","2","0","0","0","2","1","1","3","1","1","2","1","0","1","1","2","2","2","0","0","1","0","3","3","1","1","3","3","4","0","1","4","0","4","0","4","1","3","null","<div style=""font-size:75px;""><b>Correct</b></div>","null","","","","","","","","","","","","","","","","","","",""
"","html-keyboard-response","28","142843","0.0-2.6-2.6","086","19","f","1666624363002","750","q","q","Only if I get the answer right","You win money","A fixed time limit","5","female","No","No","1","1","1","0","1","0","0","1","0","0","0","0","0","0","0","0","0","0","0","0","0","1","3","2","1","2","0","0","0","2","1","1","3","1","1","2","1","0","1","1","2","2","2","0","0","1","0","3","3","1","1","3","3","4","0","1","4","0","4","0","4","1","3","700.2000000476837","","e","","true","practice","6","up","down","2","e","1","0","1666624506816","","","","","","","",""
"","html-keyboard-response","29","143478","0.0-2.7-0.7","086","19","f","1666624363002","750","q","q","Only if I get the answer right","You win money","A fixed time limit","5","female","No","No","1","1","1","0","1","0","0","1","0","0","0","0","0","0","0","0","0","0","0","0","0","1","3","2","1","2","0","0","0","2","1","1","3","1","1","2","1","0","1","1","2","2","2","0","0","1","0","3","3","1","1","3","3","4","0","1","4","0","4","0","4","1","3","634.6999999284744","<br><br><br><br><table><tr><td><img src=static/images/oddball_down.png></td><td><img src=static/images/oddball_down.png></td><td><img src=static/images/oddball_up.png></td></tr></table>","69","1","","","","","","","","","","","","","","","","","",""
"","html-keyboard-response","30","145980","0.0-2.7-1.7","086","19","f","1666624363002","750","q","q","Only if I get the answer right","You win money","A fixed time limit","5","female","No","No","1","1","1","0","1","0","0","1","0","0","0","0","0","0","0","0","0","0","0","0","0","1","3","2","1","2","0","0","0","2","1","1","3","1","1","2","1","0","1","1","2","2","2","0","0","1","0","3","3","1","1","3","3","4","0","1","4","0","4","0","4","1","3","null","<div style=""font-size:75px;""><b>Correct</b></div>","null","","","","","","","","","","","","","","","","","","",""
"","html-keyboard-response","31","146984","0.0-2.7-2.7","086","19","f","1666624363002","750","q","q","Only if I get the answer right","You win money","A fixed time limit","5","female","No","No","1","1","1","0","1","0","0","1","0","0","0","0","0","0","0","0","0","0","0","0","0","1","3","2","1","2","0","0","0","2","1","1","3","1","1","2","1","0","1","1","2","2","2","0","0","1","0","3","3","1","1","3","3","4","0","1","4","0","4","0","4","1","3","634.6999999284744","","e","","true","practice","7","down","up","2","e","1","0","1666624510957","","","","","","","",""
"","html-keyboard-response","32","147622","0.0-2.8-0.8","086","19","f","1666624363002","750","q","q","Only if I get the answer right","You win money","A fixed time limit","5","female","No","No","1","1","1","0","1","0","0","1","0","0","0","0","0","0","0","0","0","0","0","0","0","1","3","2","1","2","0","0","0","2","1","1","3","1","1","2","1","0","1","1","2","2","2","0","0","1","0","3","3","1","1","3","3","4","0","1","4","0","4","0","4","1","3","637.7999999523163","<br><br><br><br><table><tr><td><img src=static/images/oddball_down.png></td><td><img src=static/images/oddball_down.png></td><td><img src=static/images/oddball_up.png></td></tr></table>","69","1","","","","","","","","","","","","","","","","","",""
"","html-keyboard-response","33","150137","0.0-2.8-1.8","086","19","f","1666624363002","750","q","q","Only if I get the answer right","You win money","A fixed time limit","5","female","No","No","1","1","1","0","1","0","0","1","0","0","0","0","0","0","0","0","0","0","0","0","0","1","3","2","1","2","0","0","0","2","1","1","3","1","1","2","1","0","1","1","2","2","2","0","0","1","0","3","3","1","1","3","3","4","0","1","4","0","4","0","4","1","3","null","<div style=""font-size:75px;""><b>Correct</b></div>","null","","","","","","","","","","","","","","","","","","",""
"","html-keyboard-response","34","151142","0.0-2.8-2.8","086","19","f","1666624363002","750","q","q","Only if I get the answer right","You win money","A fixed time limit","5","female","No","No","1","1","1","0","1","0","0","1","0","0","0","0","0","0","0","0","0","0","0","0","0","1","3","2","1","2","0","0","0","2","1","1","3","1","1","2","1","0","1","1","2","2","2","0","0","1","0","3","3","1","1","3","3","4","0","1","4","0","4","0","4","1","3","637.7999999523163","","e","","true","practice","8","down","up","2","e","1","0","1666624515115","","","","","","","",""
"","html-keyboard-response","35","151710","0.0-2.9-0.9","086","19","f","1666624363002","750","q","q","Only if I get the answer right","You win money","A fixed time limit","5","female","No","No","1","1","1","0","1","0","0","1","0","0","0","0","0","0","0","0","0","0","0","0","0","1","3","2","1","2","0","0","0","2","1","1","3","1","1","2","1","0","1","1","2","2","2","0","0","1","0","3","3","1","1","3","3","4","0","1","4","0","4","0","4","1","3","567","<br><br><br><br><table><tr><td><img src=static/images/oddball_up.png></td><td><img src=static/images/oddball_down.png></td><td><img src=static/images/oddball_down.png></td></tr></table>","81","1","","","","","","","","","","","","","","","","","",""
"","html-keyboard-response","36","154227","0.0-2.9-1.9","086","19","f","1666624363002","750","q","q","Only if I get the answer right","You win money","A fixed time limit","5","female","No","No","1","1","1","0","1","0","0","1","0","0","0","0","0","0","0","0","0","0","0","0","0","1","3","2","1","2","0","0","0","2","1","1","3","1","1","2","1","0","1","1","2","2","2","0","0","1","0","3","3","1","1","3","3","4","0","1","4","0","4","0","4","1","3","null","<div style=""font-size:75px;""><b>Correct</b></div>","null","","","","","","","","","","","","","","","","","","",""
"","html-keyboard-response","37","155232","0.0-2.9-2.9","086","19","f","1666624363002","750","q","q","Only if I get the answer right","You win money","A fixed time limit","5","female","No","No","1","1","1","0","1","0","0","1","0","0","0","0","0","0","0","0","0","0","0","0","0","1","3","2","1","2","0","0","0","2","1","1","3","1","1","2","1","0","1","1","2","2","2","0","0","1","0","3","3","1","1","3","3","4","0","1","4","0","4","0","4","1","3","567","","q","","true","practice","9","down","up","0","q","1","0","1666624519205","","","","","","","",""
"","html-keyboard-response","38","155678","0.0-2.10-0.10","086","19","f","1666624363002","750","q","q","Only if I get the answer right","You win money","A fixed time limit","5","female","No","No","1","1","1","0","1","0","0","1","0","0","0","0","0","0","0","0","0","0","0","0","0","1","3","2","1","2","0","0","0","2","1","1","3","1","1","2","1","0","1","1","2","2","2","0","0","1","0","3","3","1","1","3","3","4","0","1","4","0","4","0","4","1","3","445.10000002384186","<br><br><br><br><table><tr><td><img src=static/images/oddball_down.png></td><td><img src=static/images/oddball_up.png></td><td><img src=static/images/oddball_up.png></td></tr></table>","81","1","","","","","","","","","","","","","","","","","",""
"","html-keyboard-response","39","158184","0.0-2.10-1.10","086","19","f","1666624363002","750","q","q","Only if I get the answer right","You win money","A fixed time limit","5","female","No","No","1","1","1","0","1","0","0","1","0","0","0","0","0","0","0","0","0","0","0","0","0","1","3","2","1","2","0","0","0","2","1","1","3","1","1","2","1","0","1","1","2","2","2","0","0","1","0","3","3","1","1","3","3","4","0","1","4","0","4","0","4","1","3","null","<div style=""font-size:75px;""><b>Correct</b></div>","null","","","","","","","","","","","","","","","","","","",""
"","html-keyboard-response","40","159189","0.0-2.10-2.10","086","19","f","1666624363002","750","q","q","Only if I get the answer right","You win money","A fixed time limit","5","female","No","No","1","1","1","0","1","0","0","1","0","0","0","0","0","0","0","0","0","0","0","0","0","1","3","2","1","2","0","0","0","2","1","1","3","1","1","2","1","0","1","1","2","2","2","0","0","1","0","3","3","1","1","3","3","4","0","1","4","0","4","0","4","1","3","445.10000002384186","","q","","true","practice","10","up","down","0","q","1","0","1666624523162","","","","","","","",""
"","html-keyboard-response","41","159646","0.0-2.11-0.11","086","19","f","1666624363002","750","q","q","Only if I get the answer right","You win money","A fixed time limit","5","female","No","No","1","1","1","0","1","0","0","1","0","0","0","0","0","0","0","0","0","0","0","0","0","1","3","2","1","2","0","0","0","2","1","1","3","1","1","2","1","0","1","1","2","2","2","0","0","1","0","3","3","1","1","3","3","4","0","1","4","0","4","0","4","1","3","456.1999999284744","<br><br><br><br><table><tr><td><img src=static/images/oddball_up.png></td><td><img src=static/images/oddball_down.png></td><td><img src=static/images/oddball_down.png></td></tr></table>","81","1","","","","","","","","","","","","","","","","","",""
"","html-keyboard-response","42","162158","0.0-2.11-1.11","086","19","f","1666624363002","750","q","q","Only if I get the answer right","You win money","A fixed time limit","5","female","No","No","1","1","1","0","1","0","0","1","0","0","0","0","0","0","0","0","0","0","0","0","0","1","3","2","1","2","0","0","0","2","1","1","3","1","1","2","1","0","1","1","2","2","2","0","0","1","0","3","3","1","1","3","3","4","0","1","4","0","4","0","4","1","3","null","<div style=""font-size:75px;""><b>Correct</b></div>","null","","","","","","","","","","","","","","","","","","",""
"","html-keyboard-response","43","163163","0.0-2.11-2.11","086","19","f","1666624363002","750","q","q","Only if I get the answer right","You win money","A fixed time limit","5","female","No","No","1","1","1","0","1","0","0","1","0","0","0","0","0","0","0","0","0","0","0","0","0","1","3","2","1","2","0","0","0","2","1","1","3","1","1","2","1","0","1","1","2","2","2","0","0","1","0","3","3","1","1","3","3","4","0","1","4","0","4","0","4","1","3","456.1999999284744","","q","","true","practice","11","down","up","0","q","1","0","1666624527136","","","","","","","",""
"","html-keyboard-response","44","164046","0.0-2.12-0.12","086","19","f","1666624363002","750","q","q","Only if I get the answer right","You win money","A fixed time limit","5","female","No","No","1","1","1","0","1","0","0","1","0","0","0","0","0","0","0","0","0","0","0","0","0","1","3","2","1","2","0","0","0","2","1","1","3","1","1","2","1","0","1","1","2","2","2","0","0","1","0","3","3","1","1","3","3","4","0","1","4","0","4","0","4","1","3","882.3999999761581","<br><br><br><br><table><tr><td><img src=static/images/oddball_up.png></td><td><img src=static/images/oddball_down.png></td><td><img src=static/images/oddball_up.png></td></tr></table>","87","1","","","","","","","","","","","","","","","","","",""
"","html-keyboard-response","45","166553","0.0-2.12-1.12","086","19","f","1666624363002","750","q","q","Only if I get the answer right","You win money","A fixed time limit","5","female","No","No","1","1","1","0","1","0","0","1","0","0","0","0","0","0","0","0","0","0","0","0","0","1","3","2","1","2","0","0","0","2","1","1","3","1","1","2","1","0","1","1","2","2","2","0","0","1","0","3","3","1","1","3","3","4","0","1","4","0","4","0","4","1","3","null","<div style=""font-size:75px;""><b>Correct</b></div>","null","","","","","","","","","","","","","","","","","","",""
"","html-keyboard-response","46","167556","0.0-2.12-2.12","086","19","f","1666624363002","750","q","q","Only if I get the answer right","You win money","A fixed time limit","5","female","No","No","1","1","1","0","1","0","0","1","0","0","0","0","0","0","0","0","0","0","0","0","0","1","3","2","1","2","0","0","0","2","1","1","3","1","1","2","1","0","1","1","2","2","2","0","0","1","0","3","3","1","1","3","3","4","0","1","4","0","4","0","4","1","3","882.3999999761581","","w","","true","practice","12","up","down","1","w","1","0","1666624531529","","","","","","","",""
"","html-keyboard-response","47","168270","0.0-2.13-0.13","086","19","f","1666624363002","750","q","q","Only if I get the answer right","You win money","A fixed time limit","5","female","No","No","1","1","1","0","1","0","0","1","0","0","0","0","0","0","0","0","0","0","0","0","0","1","3","2","1","2","0","0","0","2","1","1","3","1","1","2","1","0","1","1","2","2","2","0","0","1","0","3","3","1","1","3","3","4","0","1","4","0","4","0","4","1","3","713.2999999523163","<br><br><br><br><table><tr><td><img src=static/images/oddball_down.png></td><td><img src=static/images/oddball_down.png></td><td><img src=static/images/oddball_up.png></td></tr></table>","69","1","","","","","","","","","","","","","","","","","",""
"","html-keyboard-response","48","170776","0.0-2.13-1.13","086","19","f","1666624363002","750","q","q","Only if I get the answer right","You win money","A fixed time limit","5","female","No","No","1","1","1","0","1","0","0","1","0","0","0","0","0","0","0","0","0","0","0","0","0","1","3","2","1","2","0","0","0","2","1","1","3","1","1","2","1","0","1","1","2","2","2","0","0","1","0","3","3","1","1","3","3","4","0","1","4","0","4","0","4","1","3","null","<div style=""font-size:75px;""><b>Correct</b></div>","null","","","","","","","","","","","","","","","","","","",""
"","html-keyboard-response","49","171782","0.0-2.13-2.13","086","19","f","1666624363002","750","q","q","Only if I get the answer right","You win money","A fixed time limit","5","female","No","No","1","1","1","0","1","0","0","1","0","0","0","0","0","0","0","0","0","0","0","0","0","1","3","2","1","2","0","0","0","2","1","1","3","1","1","2","1","0","1","1","2","2","2","0","0","1","0","3","3","1","1","3","3","4","0","1","4","0","4","0","4","1","3","713.2999999523163","","e","","true","practice","13","down","up","2","e","1","0","1666624535756","","","","","","","",""
"","html-keyboard-response","50","172326","0.0-2.14-0.14","086","19","f","1666624363002","750","q","q","Only if I get the answer right","You win money","A fixed time limit","5","female","No","No","1","1","1","0","1","0","0","1","0","0","0","0","0","0","0","0","0","0","0","0","0","1","3","2","1","2","0","0","0","2","1","1","3","1","1","2","1","0","1","1","2","2","2","0","0","1","0","3","3","1","1","3","3","4","0","1","4","0","4","0","4","1","3","542.7999999523163","<br><br><br><br><table><tr><td><img src=static/images/oddball_up.png></td><td><img src=static/images/oddball_up.png></td><td><img src=static/images/oddball_down.png></td></tr></table>","69","1","","","","","","","","","","","","","","","","","",""
"","html-keyboard-response","51","174833","0.0-2.14-1.14","086","19","f","1666624363002","750","q","q","Only if I get the answer right","You win money","A fixed time limit","5","female","No","No","1","1","1","0","1","0","0","1","0","0","0","0","0","0","0","0","0","0","0","0","0","1","3","2","1","2","0","0","0","2","1","1","3","1","1","2","1","0","1","1","2","2","2","0","0","1","0","3","3","1","1","3","3","4","0","1","4","0","4","0","4","1","3","null","<div style=""font-size:75px;""><b>Correct</b></div>","null","","","","","","","","","","","","","","","","","","",""
"","html-keyboard-response","52","175838","0.0-2.14-2.14","086","19","f","1666624363002","750","q","q","Only if I get the answer right","You win money","A fixed time limit","5","female","No","No","1","1","1","0","1","0","0","1","0","0","0","0","0","0","0","0","0","0","0","0","0","1","3","2","1","2","0","0","0","2","1","1","3","1","1","2","1","0","1","1","2","2","2","0","0","1","0","3","3","1","1","3","3","4","0","1","4","0","4","0","4","1","3","542.7999999523163","","e","","true","practice","14","up","down","2","e","1","0","1666624539811","","","","","","","",""
"","html-keyboard-response","53","176566","0.0-2.15-0.15","086","19","f","1666624363002","750","q","q","Only if I get the answer right","You win money","A fixed time limit","5","female","No","No","1","1","1","0","1","0","0","1","0","0","0","0","0","0","0","0","0","0","0","0","0","1","3","2","1","2","0","0","0","2","1","1","3","1","1","2","1","0","1","1","2","2","2","0","0","1","0","3","3","1","1","3","3","4","0","1","4","0","4","0","4","1","3","727.2999999523163","<br><br><br><br><table><tr><td><img src=static/images/oddball_up.png></td><td><img src=static/images/oddball_down.png></td><td><img src=static/images/oddball_down.png></td></tr></table>","81","1","","","","","","","","","","","","","","","","","",""
"","html-keyboard-response","54","179074","0.0-2.15-1.15","086","19","f","1666624363002","750","q","q","Only if I get the answer right","You win money","A fixed time limit","5","female","No","No","1","1","1","0","1","0","0","1","0","0","0","0","0","0","0","0","0","0","0","0","0","1","3","2","1","2","0","0","0","2","1","1","3","1","1","2","1","0","1","1","2","2","2","0","0","1","0","3","3","1","1","3","3","4","0","1","4","0","4","0","4","1","3","null","<div style=""font-size:75px;""><b>Correct</b></div>","null","","","","","","","","","","","","","","","","","","",""
"","html-keyboard-response","55","180079","0.0-2.15-2.15","086","19","f","1666624363002","750","q","q","Only if I get the answer right","You win money","A fixed time limit","5","female","No","No","1","1","1","0","1","0","0","1","0","0","0","0","0","0","0","0","0","0","0","0","0","1","3","2","1","2","0","0","0","2","1","1","3","1","1","2","1","0","1","1","2","2","2","0","0","1","0","3","3","1","1","3","3","4","0","1","4","0","4","0","4","1","3","727.2999999523163","","q","","true","practice","15","down","up","0","q","1","0","1666624544052","","","","","","","",""
"","html-keyboard-response","56","180791","0.0-2.16-0.16","086","19","f","1666624363002","750","q","q","Only if I get the answer right","You win money","A fixed time limit","5","female","No","No","1","1","1","0","1","0","0","1","0","0","0","0","0","0","0","0","0","0","0","0","0","1","3","2","1","2","0","0","0","2","1","1","3","1","1","2","1","0","1","1","2","2","2","0","0","1","0","3","3","1","1","3","3","4","0","1","4","0","4","0","4","1","3","711","<br><br><br><br><table><tr><td><img src=static/images/oddball_down.png></td><td><img src=static/images/oddball_up.png></td><td><img src=static/images/oddball_up.png></td></tr></table>","81","1","","","","","","","","","","","","","","","","","",""
"","html-keyboard-response","57","183313","0.0-2.16-1.16","086","19","f","1666624363002","750","q","q","Only if I get the answer right","You win money","A fixed time limit","5","female","No","No","1","1","1","0","1","0","0","1","0","0","0","0","0","0","0","0","0","0","0","0","0","1","3","2","1","2","0","0","0","2","1","1","3","1","1","2","1","0","1","1","2","2","2","0","0","1","0","3","3","1","1","3","3","4","0","1","4","0","4","0","4","1","3","null","<div style=""font-size:75px;""><b>Correct</b></div>","null","","","","","","","","","","","","","","","","","","",""
"","html-keyboard-response","58","184322","0.0-2.16-2.16","086","19","f","1666624363002","750","q","q","Only if I get the answer right","You win money","A fixed time limit","5","female","No","No","1","1","1","0","1","0","0","1","0","0","0","0","0","0","0","0","0","0","0","0","0","1","3","2","1","2","0","0","0","2","1","1","3","1","1","2","1","0","1","1","2","2","2","0","0","1","0","3","3","1","1","3","3","4","0","1","4","0","4","0","4","1","3","711","","q","","true","practice","16","up","down","0","q","1","0","1666624548295","","","","","","","",""
"","html-keyboard-response","59","184783","0.0-2.17-0.17","086","19","f","1666624363002","750","q","q","Only if I get the answer right","You win money","A fixed time limit","5","female","No","No","1","1","1","0","1","0","0","1","0","0","0","0","0","0","0","0","0","0","0","0","0","1","3","2","1","2","0","0","0","2","1","1","3","1","1","2","1","0","1","1","2","2","2","0","0","1","0","3","3","1","1","3","3","4","0","1","4","0","4","0","4","1","3","460.09999990463257","<br><br><br><br><table><tr><td><img src=static/images/oddball_up.png></td><td><img src=static/images/oddball_up.png></td><td><img src=static/images/oddball_down.png></td></tr></table>","69","1","","","","","","","","","","","","","","","","","",""
"","html-keyboard-response","60","187290","0.0-2.17-1.17","086","19","f","1666624363002","750","q","q","Only if I get the answer right","You win money","A fixed time limit","5","female","No","No","1","1","1","0","1","0","0","1","0","0","0","0","0","0","0","0","0","0","0","0","0","1","3","2","1","2","0","0","0","2","1","1","3","1","1","2","1","0","1","1","2","2","2","0","0","1","0","3","3","1","1","3","3","4","0","1","4","0","4","0","4","1","3","null","<div style=""font-size:75px;""><b>Correct</b></div>","null","","","","","","","","","","","","","","","","","","",""
"","html-keyboard-response","61","188294","0.0-2.17-2.17","086","19","f","1666624363002","750","q","q","Only if I get the answer right","You win money","A fixed time limit","5","female","No","No","1","1","1","0","1","0","0","1","0","0","0","0","0","0","0","0","0","0","0","0","0","1","3","2","1","2","0","0","0","2","1","1","3","1","1","2","1","0","1","1","2","2","2","0","0","1","0","3","3","1","1","3","3","4","0","1","4","0","4","0","4","1","3","460.09999990463257","","e","","true","practice","17","up","down","2","e","1","0","1666624552267","","","","","","","",""
"","html-keyboard-response","62","188871","0.0-2.18-0.18","086","19","f","1666624363002","750","q","q","Only if I get the answer right","You win money","A fixed time limit","5","female","No","No","1","1","1","0","1","0","0","1","0","0","0","0","0","0","0","0","0","0","0","0","0","1","3","2","1","2","0","0","0","2","1","1","3","1","1","2","1","0","1","1","2","2","2","0","0","1","0","3","3","1","1","3","3","4","0","1","4","0","4","0","4","1","3","575.5999999046326","<br><br><br><br><table><tr><td><img src=static/images/oddball_up.png></td><td><img src=static/images/oddball_up.png></td><td><img src=static/images/oddball_down.png></td></tr></table>","69","1","","","","","","","","","","","","","","","","","",""
"","html-keyboard-response","63","191382","0.0-2.18-1.18","086","19","f","1666624363002","750","q","q","Only if I get the answer right","You win money","A fixed time limit","5","female","No","No","1","1","1","0","1","0","0","1","0","0","0","0","0","0","0","0","0","0","0","0","0","1","3","2","1","2","0","0","0","2","1","1","3","1","1","2","1","0","1","1","2","2","2","0","0","1","0","3","3","1","1","3","3","4","0","1","4","0","4","0","4","1","3","null","<div style=""font-size:75px;""><b>Correct</b></div>","null","","","","","","","","","","","","","","","","","","",""
"","html-keyboard-response","64","192387","0.0-2.18-2.18","086","19","f","1666624363002","750","q","q","Only if I get the answer right","You win money","A fixed time limit","5","female","No","No","1","1","1","0","1","0","0","1","0","0","0","0","0","0","0","0","0","0","0","0","0","1","3","2","1","2","0","0","0","2","1","1","3","1","1","2","1","0","1","1","2","2","2","0","0","1","0","3","3","1","1","3","3","4","0","1","4","0","4","0","4","1","3","575.5999999046326","","e","","true","practice","18","up","down","2","e","1","0","1666624556360","","","","","","","",""
"","html-keyboard-response","65","193199","0.0-2.19-0.19","086","19","f","1666624363002","750","q","q","Only if I get the answer right","You win money","A fixed time limit","5","female","No","No","1","1","1","0","1","0","0","1","0","0","0","0","0","0","0","0","0","0","0","0","0","1","3","2","1","2","0","0","0","2","1","1","3","1","1","2","1","0","1","1","2","2","2","0","0","1","0","3","3","1","1","3","3","4","0","1","4","0","4","0","4","1","3","810.8999999761581","<br><br><br><br><table><tr><td><img src=static/images/oddball_up.png></td><td><img src=static/images/oddball_down.png></td><td><img src=static/images/oddball_down.png></td></tr></table>","81","1","","","","","","","","","","","","","","","","","",""
"","html-keyboard-response","66","195705","0.0-2.19-1.19","086","19","f","1666624363002","750","q","q","Only if I get the answer right","You win money","A fixed time limit","5","female","No","No","1","1","1","0","1","0","0","1","0","0","0","0","0","0","0","0","0","0","0","0","0","1","3","2","1","2","0","0","0","2","1","1","3","1","1","2","1","0","1","1","2","2","2","0","0","1","0","3","3","1","1","3","3","4","0","1","4","0","4","0","4","1","3","null","<div style=""font-size:75px;""><b>Correct</b></div>","null","","","","","","","","","","","","","","","","","","",""
"","html-keyboard-response","67","196710","0.0-2.19-2.19","086","19","f","1666624363002","750","q","q","Only if I get the answer right","You win money","A fixed time limit","5","female","No","No","1","1","1","0","1","0","0","1","0","0","0","0","0","0","0","0","0","0","0","0","0","1","3","2","1","2","0","0","0","2","1","1","3","1","1","2","1","0","1","1","2","2","2","0","0","1","0","3","3","1","1","3","3","4","0","1","4","0","4","0","4","1","3","810.8999999761581","","q","","true","practice","19","down","up","0","q","1","0","1666624560683","","","","","","","",""
"","image-keyboard-response","68","203375","0.0-3.0-0.0","086","19","f","1666624363002","750","q","q","Only if I get the answer right","You win money","A fixed time limit","5","female","No","No","1","1","1","0","1","0","0","1","0","0","0","0","0","0","0","0","0","0","0","0","0","1","3","2","1","2","0","0","0","2","1","1","3","1","1","2","1","0","1","1","2","2","2","0","0","1","0","3","3","1","1","3","3","4","0","1","4","0","4","0","4","1","3","6663.699999928474","static/images/instructions/Slide8.png","39","","","","","","","","","","","","","","","","","","",""
"","image-keyboard-response","69","227591","0.0-3.1-0.1","086","19","f","1666624363002","750","q","q","Only if I get the answer right","You win money","A fixed time limit","5","female","No","No","1","1","1","0","1","0","0","1","0","0","0","0","0","0","0","0","0","0","0","0","0","1","3","2","1","2","0","0","0","2","1","1","3","1","1","2","1","0","1","1","2","2","2","0","0","1","0","3","3","1","1","3","3","4","0","1","4","0","4","0","4","1","3","24170.399999976158","static/images/instructions/Slide9.png","39","","","","","","","","","","","","","","","","","","",""
"","image-keyboard-response","70","242231","0.0-3.2-0.2","086","19","f","1666624363002","750","q","q","Only if I get the answer right","You win money","A fixed time limit","5","female","No","No","1","1","1","0","1","0","0","1","0","0","0","0","0","0","0","0","0","0","0","0","0","1","3","2","1","2","0","0","0","2","1","1","3","1","1","2","1","0","1","1","2","2","2","0","0","1","0","3","3","1","1","3","3","4","0","1","4","0","4","0","4","1","3","14647.300000071526","static/images/instructions/Slide10.png","39","","","","","","","","","","","","","","","","","","",""
"","image-keyboard-response","71","252367","0.0-3.3-0.3","086","19","f","1666624363002","750","q","q","Only if I get the answer right","You win money","A fixed time limit","5","female","No","No","1","1","1","0","1","0","0","1","0","0","0","0","0","0","0","0","0","0","0","0","0","1","3","2","1","2","0","0","0","2","1","1","3","1","1","2","1","0","1","1","2","2","2","0","0","1","0","3","3","1","1","3","3","4","0","1","4","0","4","0","4","1","3","10135.5","static/images/instructions/Slide11.png","39","","","","","","","","","","","","","","","","","","",""
"","image-keyboard-response","72","265463","0.0-3.4-0.4","086","19","f","1666624363002","750","q","q","Only if I get the answer right","You win money","A fixed time limit","5","female","No","No","1","1","1","0","1","0","0","1","0","0","0","0","0","0","0","0","0","0","0","0","0","1","3","2","1","2","0","0","0","2","1","1","3","1","1","2","1","0","1","1","2","2","2","0","0","1","0","3","3","1","1","3","3","4","0","1","4","0","4","0","4","1","3","13095.300000071526","static/images/instructions/Slide12.png","39","","","","","","","","","","","","","","","","","","",""
"","image-keyboard-response","73","269495","0.0-3.5-0.5","086","19","f","1666624363002","750","q","q","Only if I get the answer right","You win money","A fixed time limit","5","female","No","No","1","1","1","0","1","0","0","1","0","0","0","0","0","0","0","0","0","0","0","0","0","1","3","2","1","2","0","0","0","2","1","1","3","1","1","2","1","0","1","1","2","2","2","0","0","1","0","3","3","1","1","3","3","4","0","1","4","0","4","0","4","1","3","4031.4000000953674","static/images/instructions/Slide13.png","39","","","","","","","","","","","","","","","","","","",""
"","image-keyboard-response","74","278943","0.0-3.6-0.6","086","19","f","1666624363002","750","q","q","Only if I get the answer right","You win money","A fixed time limit","5","female","No","No","1","1","1","0","1","0","0","1","0","0","0","0","0","0","0","0","0","0","0","0","0","1","3","2","1","2","0","0","0","2","1","1","3","1","1","2","1","0","1","1","2","2","2","0","0","1","0","3","3","1","1","3","3","4","0","1","4","0","4","0","4","1","3","9447.399999976158","static/images/instructions/Slide14.png","39","","","","","","","","","","","","","","","","","","",""
"","image-keyboard-response","75","290831","0.0-3.7-0.7","086","19","f","1666624363002","750","q","q","Only if I get the answer right","You win money","A fixed time limit","5","female","No","No","1","1","1","0","1","0","0","1","0","0","0","0","0","0","0","0","0","0","0","0","0","1","3","2","1","2","0","0","0","2","1","1","3","1","1","2","1","0","1","1","2","2","2","0","0","1","0","3","3","1","1","3","3","4","0","1","4","0","4","0","4","1","3","11887.5","static/images/instructions/Slide15.png","39","","","","","","","","","","","","","","","","","","",""
"","image-keyboard-response","76","297663","0.0-3.8-0.8","086","19","f","1666624363002","750","q","q","Only if I get the answer right","You win money","A fixed time limit","5","female","No","No","1","1","1","0","1","0","0","1","0","0","0","0","0","0","0","0","0","0","0","0","0","1","3","2","1","2","0","0","0","2","1","1","3","1","1","2","1","0","1","1","2","2","2","0","0","1","0","3","3","1","1","3","3","4","0","1","4","0","4","0","4","1","3","6831.5","static/images/instructions/Slide16.png","39","","","","","","","","","","","","","","","","","","",""
"","image-keyboard-response","77","304078","0.0-3.9-0.9","086","19","f","1666624363002","750","q","q","Only if I get the answer right","You win money","A fixed time limit","5","female","No","No","1","1","1","0","1","0","0","1","0","0","0","0","0","0","0","0","0","0","0","0","0","1","3","2","1","2","0","0","0","2","1","1","3","1","1","2","1","0","1","1","2","2","2","0","0","1","0","3","3","1","1","3","3","4","0","1","4","0","4","0","4","1","3","6415.300000071526","static/images/instructions/Slide17.png","39","","","","","","","","","","","","","","","","","","",""
"","survey-multi-choice","78","369511","0.0-4.0","086","19","f","1666624363002","750","q","q","Only if I get the answer right","You win money","A fixed time limit","5","female","No","No","1","1","1","0","1","0","0","1","0","0","0","0","0","0","0","0","0","0","0","0","0","1","3","2","1","2","0","0","0","2","1","1","3","1","1","2","1","0","1","1","2","2","2","0","0","1","0","3","3","1","1","3","3","4","0","1","4","0","4","0","4","1","3","65246.90000009537","","","","","","","","","","","","","","{""q1"":""q"",""q2"":""q"",""q3"":""Only if I get the answer right"",""q4"":""You win money"",""q5"":""A fixed time limit""}","[2,4,1,0,3]","","","","","",""
"","image-keyboard-response","79","384118","0.0-5.0-0.0","086","19","f","1666624363002","750","q","q","Only if I get the answer right","You win money","A fixed time limit","5","female","No","No","1","1","1","0","1","0","0","1","0","0","0","0","0","0","0","0","0","0","0","0","0","1","3","2","1","2","0","0","0","2","1","1","3","1","1","2","1","0","1","1","2","2","2","0","0","1","0","3","3","1","1","3","3","4","0","1","4","0","4","0","4","1","3","14540.5","static/images/instructions/Slide18.png","39","","","","","","","","","","","","","","","","","","",""
"","html-keyboard-response","80","385130","0.0-6.0-0.0-0.0","086","19","f","1666624363002","750","q","q","Only if I get the answer right","You win money","A fixed time limit","5","female","No","No","1","1","1","0","1","0","0","1","0","0","0","0","0","0","0","0","0","0","0","0","0","1","3","2","1","2","0","0","0","2","1","1","3","1","1","2","1","0","1","1","2","2","2","0","0","1","0","3","3","1","1","3","3","4","0","1","4","0","4","0","4","1","3","null","<div style=""font-size:75px;"">3</div>","null","","","","","","","","","","","","","","","","","","",""
"","html-keyboard-response","81","386134","0.0-6.0-0.1-0.1","086","19","f","1666624363002","750","q","q","Only if I get the answer right","You win money","A fixed time limit","5","female","No","No","1","1","1","0","1","0","0","1","0","0","0","0","0","0","0","0","0","0","0","0","0","1","3","2","1","2","0","0","0","2","1","1","3","1","1","2","1","0","1","1","2","2","2","0","0","1","0","3","3","1","1","3","3","4","0","1","4","0","4","0","4","1","3","null","<div style=""font-size:75px;"">2</div>","null","","","","","","","","","","","","","","","","","","",""
"","html-keyboard-response","82","387136","0.0-6.0-0.2-0.2","086","19","f","1666624363002","750","q","q","Only if I get the answer right","You win money","A fixed time limit","5","female","No","No","1","1","1","0","1","0","0","1","0","0","0","0","0","0","0","0","0","0","0","0","0","1","3","2","1","2","0","0","0","2","1","1","3","1","1","2","1","0","1","1","2","2","2","0","0","1","0","3","3","1","1","3","3","4","0","1","4","0","4","0","4","1","3","null","<div style=""font-size:75px;"">1</div>","null","","","","","","","","","","","","","","","","","","",""
"","html-keyboard-response","83","387920","0.0-6.0-1.0-0.0","086","19","f","1666624363002","750","q","q","Only if I get the answer right","You win money","A fixed time limit","5","female","No","No","1","1","1","0","1","0","0","1","0","0","0","0","0","0","0","0","0","0","0","0","0","1","3","2","1","2","0","0","0","2","1","1","3","1","1","2","1","0","1","1","2","2","2","0","0","1","0","3","3","1","1","3","3","4","0","1","4","0","4","0","4","1","3","null","<div style=""color:green; font-size:75px;""><b>$0.02</b></div><br><br><br><br><table><tr><td><img src=static/images/oddball_down.png></td><td><img src=static/images/oddball_down.png></td><td><img src=static/images/oddball_up.png></td></tr></table>","null","","","","","","","","","","","","","","","","","","",""
"","html-keyboard-response","84","388037","0.0-6.0-1.0-1.0","086","19","f","1666624363002","750","q","q","Only if I get the answer right","You win money","A fixed time limit","5","female","No","No","1","1","1","0","1","0","0","1","0","0","0","0","0","0","0","0","0","0","0","0","0","1","3","2","1","2","0","0","0","2","1","1","3","1","1","2","1","0","1","1","2","2","2","0","0","1","0","3","3","1","1","3","3","4","0","1","4","0","4","0","4","1","3","null","","null","","true","0","0","down","up","2","e","0","0","1666624752010","","","false","60","0","0","0.02","true"
"","html-keyboard-response","85","388150","0.0-6.0-1.1-0.1","086","19","f","1666624363002","750","q","q","Only if I get the answer right","You win money","A fixed time limit","5","female","No","No","1","1","1","0","1","0","0","1","0","0","0","0","0","0","0","0","0","0","0","0","0","1","3","2","1","2","0","0","0","2","1","1","3","1","1","2","1","0","1","1","2","2","2","0","0","1","0","3","3","1","1","3","3","4","0","1","4","0","4","0","4","1","3","111.40000009536743","<div style=""color:green; font-size:75px;""><b>$0.02</b></div><br><br><br><br><table><tr><td><img src=static/images/oddball_down.png></td><td><img src=static/images/oddball_down.png></td><td><img src=static/images/oddball_up.png></td></tr></table>","69","1","","","","","","","","","","","","","","","","","",""
"","html-keyboard-response","86","388262","0.0-6.0-1.1-1.1","086","19","f","1666624363002","750","q","q","Only if I get the answer right","You win money","A fixed time limit","5","female","No","No","1","1","1","0","1","0","0","1","0","0","0","0","0","0","0","0","0","0","0","0","0","1","3","2","1","2","0","0","0","2","1","1","3","1","1","2","1","0","1","1","2","2","2","0","0","1","0","3","3","1","1","3","3","4","0","1","4","0","4","0","4","1","3","111.40000009536743","","e","","true","0","1","down","up","2","e","1","0","1666624752236","","","false","60","1","0","0.02","false"
"","html-keyboard-response","87","388758","0.0-6.0-1.2-0.2","086","19","f","1666624363002","750","q","q","Only if I get the answer right","You win money","A fixed time limit","5","female","No","No","1","1","1","0","1","0","0","1","0","0","0","0","0","0","0","0","0","0","0","0","0","1","3","2","1","2","0","0","0","2","1","1","3","1","1","2","1","0","1","1","2","2","2","0","0","1","0","3","3","1","1","3","3","4","0","1","4","0","4","0","4","1","3","495","<div style=""color:green; font-size:75px;""><b>$0.02</b></div><br><br><br><br><table><tr><td><img src=static/images/oddball_down.png></td><td><img src=static/images/oddball_up.png></td><td><img src=static/images/oddball_up.png></td></tr></table>","81","1","","","","","","","","","","","","","","","","","",""
"","html-keyboard-response","88","388867","0.0-6.0-1.2-1.2","086","19","f","1666624363002","750","q","q","Only if I get the answer right","You win money","A fixed time limit","5","female","No","No","1","1","1","0","1","0","0","1","0","0","0","0","0","0","0","0","0","0","0","0","0","1","3","2","1","2","0","0","0","2","1","1","3","1","1","2","1","0","1","1","2","2","2","0","0","1","0","3","3","1","1","3","3","4","0","1","4","0","4","0","4","1","3","495","","q","","true","0","2","up","down","0","q","1","0","1666624752840","","","false","60","2","0.016666666666666666","0.02","false"
"","html-keyboard-response","89","389614","0.0-6.0-1.3-0.3","086","19","f","1666624363002","750","q","q","Only if I get the answer right","You win money","A fixed time limit","5","female","No","No","1","1","1","0","1","0","0","1","0","0","0","0","0","0","0","0","0","0","0","0","0","1","3","2","1","2","0","0","0","2","1","1","3","1","1","2","1","0","1","1","2","2","2","0","0","1","0","3","3","1","1","3","3","4","0","1","4","0","4","0","4","1","3","746.7000000476837","<div style=""color:green; font-size:75px;""><b>$0.02</b></div><br><br><br><br><table><tr><td><img src=static/images/oddball_down.png></td><td><img src=static/images/oddball_down.png></td><td><img src=static/images/oddball_up.png></td></tr></table>","69","1","","","","","","","","","","","","","","","","","",""
"","html-keyboard-response","90","389718","0.0-6.0-1.3-1.3","086","19","f","1666624363002","750","q","q","Only if I get the answer right","You win money","A fixed time limit","5","female","No","No","1","1","1","0","1","0","0","1","0","0","0","0","0","0","0","0","0","0","0","0","0","1","3","2","1","2","0","0","0","2","1","1","3","1","1","2","1","0","1","1","2","2","2","0","0","1","0","3","3","1","1","3","3","4","0","1","4","0","4","0","4","1","3","746.7000000476837","","e","","true","0","3","down","up","2","e","1","0","1666624753691","","","false","60","3","0.03333333333333333","0.02","false"
"","html-keyboard-response","91","390350","0.0-6.0-1.4-0.4","086","19","f","1666624363002","750","q","q","Only if I get the answer right","You win money","A fixed time limit","5","female","No","No","1","1","1","0","1","0","0","1","0","0","0","0","0","0","0","0","0","0","0","0","0","1","3","2","1","2","0","0","0","2","1","1","3","1","1","2","1","0","1","1","2","2","2","0","0","1","0","3","3","1","1","3","3","4","0","1","4","0","4","0","4","1","3","631.5","<div style=""color:green; font-size:75px;""><b>$0.02</b></div><br><br><br><br><table><tr><td><img src=static/images/oddball_up.png></td><td><img src=static/images/oddball_up.png></td><td><img src=static/images/oddball_down.png></td></tr></table>","69","1","","","","","","","","","","","","","","","","","",""
"","html-keyboard-response","92","390453","0.0-6.0-1.4-1.4","086","19","f","1666624363002","750","q","q","Only if I get the answer right","You win money","A fixed time limit","5","female","No","No","1","1","1","0","1","0","0","1","0","0","0","0","0","0","0","0","0","0","0","0","0","1","3","2","1","2","0","0","0","2","1","1","3","1","1","2","1","0","1","1","2","2","2","0","0","1","0","3","3","1","1","3","3","4","0","1","4","0","4","0","4","1","3","631.5","","e","","true","0","4","up","down","2","e","1","0","1666624754426","","","false","60","4","0.05","0.02","false"
"","html-keyboard-response","93","390926","0.0-6.0-1.5-0.5","086","19","f","1666624363002","750","q","q","Only if I get the answer right","You win money","A fixed time limit","5","female","No","No","1","1","1","0","1","0","0","1","0","0","0","0","0","0","0","0","0","0","0","0","0","1","3","2","1","2","0","0","0","2","1","1","3","1","1","2","1","0","1","1","2","2","2","0","0","1","0","3","3","1","1","3","3","4","0","1","4","0","4","0","4","1","3","447.60000002384186","<div style=""color:green; font-size:75px;""><b>$0.02</b></div><br><br><br><br><table><tr><td><img src=static/images/oddball_down.png></td><td><img src=static/images/oddball_down.png></td><td><img src=static/images/oddball_up.png></td></tr></table>","69","1","","","","","","","","","","","","","","","","","",""
"","html-keyboard-response","94","391037","0.0-6.0-1.5-1.5","086","19","f","1666624363002","750","q","q","Only if I get the answer right","You win money","A fixed time limit","5","female","No","No","1","1","1","0","1","0","0","1","0","0","0","0","0","0","0","0","0","0","0","0","0","1","3","2","1","2","0","0","0","2","1","1","3","1","1","2","1","0","1","1","2","2","2","0","0","1","0","3","3","1","1","3","3","4","0","1","4","0","4","0","4","1","3","447.60000002384186","","e","","true","0","5","down","up","2","e","1","0","1666624755010","","","false","60","5","0.06666666666666667","0.02","false"
"","html-keyboard-response","95","391646","0.0-6.0-1.6-0.6","086","19","f","1666624363002","750","q","q","Only if I get the answer right","You win money","A fixed time limit","5","female","No","No","1","1","1","0","1","0","0","1","0","0","0","0","0","0","0","0","0","0","0","0","0","1","3","2","1","2","0","0","0","2","1","1","3","1","1","2","1","0","1","1","2","2","2","0","0","1","0","3","3","1","1","3","3","4","0","1","4","0","4","0","4","1","3","608.3999999761581","<div style=""color:green; font-size:75px;""><b>$0.02</b></div><br><br><br><br><table><tr><td><img src=static/images/oddball_down.png></td><td><img src=static/images/oddball_down.png></td><td><img src=static/images/oddball_up.png></td></tr></table>","69","1","","","","","","","","","","","","","","","","","",""
"","html-keyboard-response","96","391756","0.0-6.0-1.6-1.6","086","19","f","1666624363002","750","q","q","Only if I get the answer right","You win money","A fixed time limit","5","female","No","No","1","1","1","0","1","0","0","1","0","0","0","0","0","0","0","0","0","0","0","0","0","1","3","2","1","2","0","0","0","2","1","1","3","1","1","2","1","0","1","1","2","2","2","0","0","1","0","3","3","1","1","3","3","4","0","1","4","0","4","0","4","1","3","608.3999999761581","","e","","true","0","6","down","up","2","e","1","0","1666624755729","","","false","60","6","0.08333333333333333","0.02","false"
"","html-keyboard-response","97","392254","0.0-6.0-1.7-0.7","086","19","f","1666624363002","750","q","q","Only if I get the answer right","You win money","A fixed time limit","5","female","No","No","1","1","1","0","1","0","0","1","0","0","0","0","0","0","0","0","0","0","0","0","0","1","3","2","1","2","0","0","0","2","1","1","3","1","1","2","1","0","1","1","2","2","2","0","0","1","0","3","3","1","1","3","3","4","0","1","4","0","4","0","4","1","3","497.7999999523163","<div style=""color:green; font-size:75px;""><b>$0.02</b></div><br><br><br><br><table><tr><td><img src=static/images/oddball_up.png></td><td><img src=static/images/oddball_up.png></td><td><img src=static/images/oddball_down.png></td></tr></table>","69","1","","","","","","","","","","","","","","","","","",""
"","html-keyboard-response","98","392357","0.0-6.0-1.7-1.7","086","19","f","1666624363002","750","q","q","Only if I get the answer right","You win money","A fixed time limit","5","female","No","No","1","1","1","0","1","0","0","1","0","0","0","0","0","0","0","0","0","0","0","0","0","1","3","2","1","2","0","0","0","2","1","1","3","1","1","2","1","0","1","1","2","2","2","0","0","1","0","3","3","1","1","3","3","4","0","1","4","0","4","0","4","1","3","497.7999999523163","","e","","true","0","7","up","down","2","e","1","0","1666624756330","","","false","60","7","0.1","0.02","false"
"","html-keyboard-response","99","392854","0.0-6.0-1.8-0.8","086","19","f","1666624363002","750","q","q","Only if I get the answer right","You win money","A fixed time limit","5","female","No","No","1","1","1","0","1","0","0","1","0","0","0","0","0","0","0","0","0","0","0","0","0","1","3","2","1","2","0","0","0","2","1","1","3","1","1","2","1","0","1","1","2","2","2","0","0","1","0","3","3","1","1","3","3","4","0","1","4","0","4","0","4","1","3","496.5","<div style=""color:green; font-size:75px;""><b>$0.02</b></div><br><br><br><br><table><tr><td><img src=static/images/oddball_up.png></td><td><img src=static/images/oddball_up.png></td><td><img src=static/images/oddball_down.png></td></tr></table>","69","1","","","","","","","","","","","","","","","","","",""
"","html-keyboard-response","100","392958","0.0-6.0-1.8-1.8","086","19","f","1666624363002","750","q","q","Only if I get the answer right","You win money","A fixed time limit","5","female","No","No","1","1","1","0","1","0","0","1","0","0","0","0","0","0","0","0","0","0","0","0","0","1","3","2","1","2","0","0","0","2","1","1","3","1","1","2","1","0","1","1","2","2","2","0","0","1","0","3","3","1","1","3","3","4","0","1","4","0","4","0","4","1","3","496.5","","e","","true","0","8","up","down","2","e","1","0","1666624756931","","","false","60","8","0.11666666666666667","0.02","false"
"","html-keyboard-response","101","393566","0.0-6.0-1.9-0.9","086","19","f","1666624363002","750","q","q","Only if I get the answer right","You win money","A fixed time limit","5","female","No","No","1","1","1","0","1","0","0","1","0","0","0","0","0","0","0","0","0","0","0","0","0","1","3","2","1","2","0","0","0","2","1","1","3","1","1","2","1","0","1","1","2","2","2","0","0","1","0","3","3","1","1","3","3","4","0","1","4","0","4","0","4","1","3","606.8999999761581","<div style=""color:green; font-size:75px;""><b>$0.02</b></div><br><br><br><br><table><tr><td><img src=static/images/oddball_down.png></td><td><img src=static/images/oddball_up.png></td><td><img src=static/images/oddball_down.png></td></tr></table>","81","1","","","","","","","","","","","","","","","","","",""
"","html-keyboard-response","102","393677","0.0-6.0-1.9-1.9","086","19","f","1666624363002","750","q","q","Only if I get the answer right","You win money","A fixed time limit","5","female","No","No","1","1","1","0","1","0","0","1","0","0","0","0","0","0","0","0","0","0","0","0","0","1","3","2","1","2","0","0","0","2","1","1","3","1","1","2","1","0","1","1","2","2","2","0","0","1","0","3","3","1","1","3","3","4","0","1","4","0","4","0","4","1","3","606.8999999761581","","q","","true","0","9","down","up","1","w","0","0","1666624757650","","","false","60","9","0.13333333333333333","0.02","false"
"","html-keyboard-response","103","394433","0.0-6.0-1.10-0.10","086","19","f","1666624363002","750","q","q","Only if I get the answer right","You win money","A fixed time limit","5","female","No","No","1","1","1","0","1","0","0","1","0","0","0","0","0","0","0","0","0","0","0","0","0","1","3","2","1","2","0","0","0","2","1","1","3","1","1","2","1","0","1","1","2","2","2","0","0","1","0","3","3","1","1","3","3","4","0","1","4","0","4","0","4","1","3","null","<div style=""color:green; font-size:75px;""><b>$0.02</b></div><br><br><br><br><table><tr><td><img src=static/images/oddball_down.png></td><td><img src=static/images/oddball_up.png></td><td><img src=static/images/oddball_up.png></td></tr></table>","null","","","","","","","","","","","","","","","","","","",""
"","html-keyboard-response","104","394548","0.0-6.0-1.10-1.10","086","19","f","1666624363002","750","q","q","Only if I get the answer right","You win money","A fixed time limit","5","female","No","No","1","1","1","0","1","0","0","1","0","0","0","0","0","0","0","0","0","0","0","0","0","1","3","2","1","2","0","0","0","2","1","1","3","1","1","2","1","0","1","1","2","2","2","0","0","1","0","3","3","1","1","3","3","4","0","1","4","0","4","0","4","1","3","null","","null","","true","0","10","up","down","0","q","0","0","1666624758521","","","false","60","10","0.13333333333333333","0.02","true"
"","html-keyboard-response","105","395118","0.0-6.0-1.11-0.11","086","19","f","1666624363002","750","q","q","Only if I get the answer right","You win money","A fixed time limit","5","female","No","No","1","1","1","0","1","0","0","1","0","0","0","0","0","0","0","0","0","0","0","0","0","1","3","2","1","2","0","0","0","2","1","1","3","1","1","2","1","0","1","1","2","2","2","0","0","1","0","3","3","1","1","3","3","4","0","1","4","0","4","0","4","1","3","569.7000000476837","<div style=""color:green; font-size:75px;""><b>$0.02</b></div><br><br><br><br><table><tr><td><img src=static/images/oddball_up.png></td><td><img src=static/images/oddball_down.png></td><td><img src=static/images/oddball_up.png></td></tr></table>","87","1","","","","","","","","","","","","","","","","","",""
"","html-keyboard-response","106","395229","0.0-6.0-1.11-1.11","086","19","f","1666624363002","750","q","q","Only if I get the answer right","You win money","A fixed time limit","5","female","No","No","1","1","1","0","1","0","0","1","0","0","0","0","0","0","0","0","0","0","0","0","0","1","3","2","1","2","0","0","0","2","1","1","3","1","1","2","1","0","1","1","2","2","2","0","0","1","0","3","3","1","1","3","3","4","0","1","4","0","4","0","4","1","3","569.7000000476837","","w","","true","0","11","up","down","1","w","1","0","1666624759202","","","false","60","11","0.13333333333333333","0.02","false"
"","html-keyboard-response","107","395982","0.0-6.0-1.12-0.12","086","19","f","1666624363002","750","q","q","Only if I get the answer right","You win money","A fixed time limit","5","female","No","No","1","1","1","0","1","0","0","1","0","0","0","0","0","0","0","0","0","0","0","0","0","1","3","2","1","2","0","0","0","2","1","1","3","1","1","2","1","0","1","1","2","2","2","0","0","1","0","3","3","1","1","3","3","4","0","1","4","0","4","0","4","1","3","752.5","<div style=""color:green; font-size:75px;""><b>$0.02</b></div><br><br><br><br><table><tr><td><img src=static/images/oddball_down.png></td><td><img src=static/images/oddball_up.png></td><td><img src=static/images/oddball_down.png></td></tr></table>","87","1","","","","","","","","","","","","","","","","","",""
"","html-keyboard-response","108","396097","0.0-6.0-1.12-1.12","086","19","f","1666624363002","750","q","q","Only if I get the answer right","You win money","A fixed time limit","5","female","No","No","1","1","1","0","1","0","0","1","0","0","0","0","0","0","0","0","0","0","0","0","0","1","3","2","1","2","0","0","0","2","1","1","3","1","1","2","1","0","1","1","2","2","2","0","0","1","0","3","3","1","1","3","3","4","0","1","4","0","4","0","4","1","3","752.5","","w","","true","0","12","down","up","1","w","1","0","1666624760070","","","false","60","12","0.15","0.02","false"
"","html-keyboard-response","109","396598","0.0-6.0-1.13-0.13","086","19","f","1666624363002","750","q","q","Only if I get the answer right","You win money","A fixed time limit","5","female","No","No","1","1","1","0","1","0","0","1","0","0","0","0","0","0","0","0","0","0","0","0","0","1","3","2","1","2","0","0","0","2","1","1","3","1","1","2","1","0","1","1","2","2","2","0","0","1","0","3","3","1","1","3","3","4","0","1","4","0","4","0","4","1","3","500.5","<div style=""color:green; font-size:75px;""><b>$0.02</b></div><br><br><br><br><table><tr><td><img src=static/images/oddball_up.png></td><td><img src=static/images/oddball_up.png></td><td><img src=static/images/oddball_down.png></td></tr></table>","69","1","","","","","","","","","","","","","","","","","",""
"","html-keyboard-response","110","396710","0.0-6.0-1.13-1.13","086","19","f","1666624363002","750","q","q","Only if I get the answer right","You win money","A fixed time limit","5","female","No","No","1","1","1","0","1","0","0","1","0","0","0","0","0","0","0","0","0","0","0","0","0","1","3","2","1","2","0","0","0","2","1","1","3","1","1","2","1","0","1","1","2","2","2","0","0","1","0","3","3","1","1","3","3","4","0","1","4","0","4","0","4","1","3","500.5","","e","","true","0","13","up","down","2","e","1","0","1666624760683","","","false","60","13","0.16666666666666666","0.02","false"
"","html-keyboard-response","111","397238","0.0-6.0-1.14-0.14","086","19","f","1666624363002","750","q","q","Only if I get the answer right","You win money","A fixed time limit","5","female","No","No","1","1","1","0","1","0","0","1","0","0","0","0","0","0","0","0","0","0","0","0","0","1","3","2","1","2","0","0","0","2","1","1","3","1","1","2","1","0","1","1","2","2","2","0","0","1","0","3","3","1","1","3","3","4","0","1","4","0","4","0","4","1","3","527.1999999284744","<div style=""color:green; font-size:75px;""><b>$0.02</b></div><br><br><br><br><table><tr><td><img src=static/images/oddball_down.png></td><td><img src=static/images/oddball_down.png></td><td><img src=static/images/oddball_up.png></td></tr></table>","69","1","","","","","","","","","","","","","","","","","",""
"","html-keyboard-response","112","397342","0.0-6.0-1.14-1.14","086","19","f","1666624363002","750","q","q","Only if I get the answer right","You win money","A fixed time limit","5","female","No","No","1","1","1","0","1","0","0","1","0","0","0","0","0","0","0","0","0","0","0","0","0","1","3","2","1","2","0","0","0","2","1","1","3","1","1","2","1","0","1","1","2","2","2","0","0","1","0","3","3","1","1","3","3","4","0","1","4","0","4","0","4","1","3","527.1999999284744","","e","","true","0","14","down","up","2","e","1","0","1666624761315","","","false","60","14","0.18333333333333332","0.02","false"
"","html-keyboard-response","113","397918","0.0-6.0-1.15-0.15","086","19","f","1666624363002","750","q","q","Only if I get the answer right","You win money","A fixed time limit","5","female","No","No","1","1","1","0","1","0","0","1","0","0","0","0","0","0","0","0","0","0","0","0","0","1","3","2","1","2","0","0","0","2","1","1","3","1","1","2","1","0","1","1","2","2","2","0","0","1","0","3","3","1","1","3","3","4","0","1","4","0","4","0","4","1","3","575.2999999523163","<div style=""color:green; font-size:75px;""><b>$0.02</b></div><br><br><br><br><table><tr><td><img src=static/images/oddball_up.png></td><td><img src=static/images/oddball_down.png></td><td><img src=static/images/oddball_up.png></td></tr></table>","87","1","","","","","","","","","","","","","","","","","",""
"","html-keyboard-response","114","398030","0.0-6.0-1.15-1.15","086","19","f","1666624363002","750","q","q","Only if I get the answer right","You win money","A fixed time limit","5","female","No","No","1","1","1","0","1","0","0","1","0","0","0","0","0","0","0","0","0","0","0","0","0","1","3","2","1","2","0","0","0","2","1","1","3","1","1","2","1","0","1","1","2","2","2","0","0","1","0","3","3","1","1","3","3","4","0","1","4","0","4","0","4","1","3","575.2999999523163","","w","","true","0","15","up","down","1","w","1","0","1666624762003","","","false","60","15","0.2","0.02","false"
"","html-keyboard-response","115","398494","0.0-6.0-1.16-0.16","086","19","f","1666624363002","750","q","q","Only if I get the answer right","You win money","A fixed time limit","5","female","No","No","1","1","1","0","1","0","0","1","0","0","0","0","0","0","0","0","0","0","0","0","0","1","3","2","1","2","0","0","0","2","1","1","3","1","1","2","1","0","1","1","2","2","2","0","0","1","0","3","3","1","1","3","3","4","0","1","4","0","4","0","4","1","3","463.39999997615814","<div style=""color:green; font-size:75px;""><b>$0.02</b></div><br><br><br><br><table><tr><td><img src=static/images/oddball_up.png></td><td><img src=static/images/oddball_up.png></td><td><img src=static/images/oddball_down.png></td></tr></table>","69","1","","","","","","","","","","","","","","","","","",""
"","html-keyboard-response","116","398602","0.0-6.0-1.16-1.16","086","19","f","1666624363002","750","q","q","Only if I get the answer right","You win money","A fixed time limit","5","female","No","No","1","1","1","0","1","0","0","1","0","0","0","0","0","0","0","0","0","0","0","0","0","1","3","2","1","2","0","0","0","2","1","1","3","1","1","2","1","0","1","1","2","2","2","0","0","1","0","3","3","1","1","3","3","4","0","1","4","0","4","0","4","1","3","463.39999997615814","","e","","true","0","16","up","down","2","e","1","0","1666624762575","","","false","60","16","0.21666666666666667","0.02","false"
"","html-keyboard-response","117","399198","0.0-6.0-1.17-0.17","086","19","f","1666624363002","750","q","q","Only if I get the answer right","You win money","A fixed time limit","5","female","No","No","1","1","1","0","1","0","0","1","0","0","0","0","0","0","0","0","0","0","0","0","0","1","3","2","1","2","0","0","0","2","1","1","3","1","1","2","1","0","1","1","2","2","2","0","0","1","0","3","3","1","1","3","3","4","0","1","4","0","4","0","4","1","3","595.8999999761581","<div style=""color:green; font-size:75px;""><b>$0.02</b></div><br><br><br><br><table><tr><td><img src=static/images/oddball_down.png></td><td><img src=static/images/oddball_up.png></td><td><img src=static/images/oddball_down.png></td></tr></table>","81","1","","","","","","","","","","","","","","","","","",""
"","html-keyboard-response","118","399303","0.0-6.0-1.17-1.17","086","19","f","1666624363002","750","q","q","Only if I get the answer right","You win money","A fixed time limit","5","female","No","No","1","1","1","0","1","0","0","1","0","0","0","0","0","0","0","0","0","0","0","0","0","1","3","2","1","2","0","0","0","2","1","1","3","1","1","2","1","0","1","1","2","2","2","0","0","1","0","3","3","1","1","3","3","4","0","1","4","0","4","0","4","1","3","595.8999999761581","","q","","true","0","17","down","up","1","w","0","0","1666624763276","","","false","60","17","0.23333333333333334","0.02","false"
"","html-keyboard-response","119","400059","0.0-6.0-1.18-0.18","086","19","f","1666624363002","750","q","q","Only if I get the answer right","You win money","A fixed time limit","5","female","No","No","1","1","1","0","1","0","0","1","0","0","0","0","0","0","0","0","0","0","0","0","0","1","3","2","1","2","0","0","0","2","1","1","3","1","1","2","1","0","1","1","2","2","2","0","0","1","0","3","3","1","1","3","3","4","0","1","4","0","4","0","4","1","3","null","<div style=""color:green; font-size:75px;""><b>$0.02</b></div><br><br><br><br><table><tr><td><img src=static/images/oddball_down.png></td><td><img src=static/images/oddball_down.png></td><td><img src=static/images/oddball_up.png></td></tr></table>","null","","","","","","","","","","","","","","","","","","",""
"","html-keyboard-response","120","400177","0.0-6.0-1.18-1.18","086","19","f","1666624363002","750","q","q","Only if I get the answer right","You win money","A fixed time limit","5","female","No","No","1","1","1","0","1","0","0","1","0","0","0","0","0","0","0","0","0","0","0","0","0","1","3","2","1","2","0","0","0","2","1","1","3","1","1","2","1","0","1","1","2","2","2","0","0","1","0","3","3","1","1","3","3","4","0","1","4","0","4","0","4","1","3","null","","null","","true","0","18","down","up","2","e","0","0","1666624764150","","","false","60","18","0.23333333333333334","0.02","true"
"","html-keyboard-response","121","400638","0.0-6.0-1.19-0.19","086","19","f","1666624363002","750","q","q","Only if I get the answer right","You win money","A fixed time limit","5","female","No","No","1","1","1","0","1","0","0","1","0","0","0","0","0","0","0","0","0","0","0","0","0","1","3","2","1","2","0","0","0","2","1","1","3","1","1","2","1","0","1","1","2","2","2","0","0","1","0","3","3","1","1","3","3","4","0","1","4","0","4","0","4","1","3","461","<div style=""color:green; font-size:75px;""><b>$0.02</b></div><br><br><br><br><table><tr><td><img src=static/images/oddball_up.png></td><td><img src=static/images/oddball_up.png></td><td><img src=static/images/oddball_down.png></td></tr></table>","69","1","","","","","","","","","","","","","","","","","",""
"","html-keyboard-response","122","400740","0.0-6.0-1.19-1.19","086","19","f","1666624363002","750","q","q","Only if I get the answer right","You win money","A fixed time limit","5","female","No","No","1","1","1","0","1","0","0","1","0","0","0","0","0","0","0","0","0","0","0","0","0","1","3","2","1","2","0","0","0","2","1","1","3","1","1","2","1","0","1","1","2","2","2","0","0","1","0","3","3","1","1","3","3","4","0","1","4","0","4","0","4","1","3","461","","e","","true","0","19","up","down","2","e","1","0","1666624764713","","","false","60","19","0.23333333333333334","0.02","false"
"","html-keyboard-response","123","401262","0.0-6.0-1.20-0.20","086","19","f","1666624363002","750","q","q","Only if I get the answer right","You win money","A fixed time limit","5","female","No","No","1","1","1","0","1","0","0","1","0","0","0","0","0","0","0","0","0","0","0","0","0","1","3","2","1","2","0","0","0","2","1","1","3","1","1","2","1","0","1","1","2","2","2","0","0","1","0","3","3","1","1","3","3","4","0","1","4","0","4","0","4","1","3","521.8999999761581","<div style=""color:green; font-size:75px;""><b>$0.02</b></div><br><br><br><br><table><tr><td><img src=static/images/oddball_down.png></td><td><img src=static/images/oddball_down.png></td><td><img src=static/images/oddball_up.png></td></tr></table>","69","1","","","","","","","","","","","","","","","","","",""
"","html-keyboard-response","124","401374","0.0-6.0-1.20-1.20","086","19","f","1666624363002","750","q","q","Only if I get the answer right","You win money","A fixed time limit","5","female","No","No","1","1","1","0","1","0","0","1","0","0","0","0","0","0","0","0","0","0","0","0","0","1","3","2","1","2","0","0","0","2","1","1","3","1","1","2","1","0","1","1","2","2","2","0","0","1","0","3","3","1","1","3","3","4","0","1","4","0","4","0","4","1","3","521.8999999761581","","e","","true","0","20","down","up","2","e","1","0","1666624765347","","","false","60","20","0.25","0.02","false"
"","html-keyboard-response","125","401934","0.0-6.0-1.21-0.21","086","19","f","1666624363002","750","q","q","Only if I get the answer right","You win money","A fixed time limit","5","female","No","No","1","1","1","0","1","0","0","1","0","0","0","0","0","0","0","0","0","0","0","0","0","1","3","2","1","2","0","0","0","2","1","1","3","1","1","2","1","0","1","1","2","2","2","0","0","1","0","3","3","1","1","3","3","4","0","1","4","0","4","0","4","1","3","559.7999999523163","<div style=""color:green; font-size:75px;""><b>$0.02</b></div><br><br><br><br><table><tr><td><img src=static/images/oddball_down.png></td><td><img src=static/images/oddball_up.png></td><td><img src=static/images/oddball_down.png></td></tr></table>","87","1","","","","","","","","","","","","","","","","","",""
"","html-keyboard-response","126","402041","0.0-6.0-1.21-1.21","086","19","f","1666624363002","750","q","q","Only if I get the answer right","You win money","A fixed time limit","5","female","No","No","1","1","1","0","1","0","0","1","0","0","0","0","0","0","0","0","0","0","0","0","0","1","3","2","1","2","0","0","0","2","1","1","3","1","1","2","1","0","1","1","2","2","2","0","0","1","0","3","3","1","1","3","3","4","0","1","4","0","4","0","4","1","3","559.7999999523163","","w","","true","0","21","down","up","1","w","1","0","1666624766014","","","false","60","21","0.26666666666666666","0.02","false"
"","html-keyboard-response","127","402614","0.0-6.0-1.22-0.22","086","19","f","1666624363002","750","q","q","Only if I get the answer right","You win money","A fixed time limit","5","female","No","No","1","1","1","0","1","0","0","1","0","0","0","0","0","0","0","0","0","0","0","0","0","1","3","2","1","2","0","0","0","2","1","1","3","1","1","2","1","0","1","1","2","2","2","0","0","1","0","3","3","1","1","3","3","4","0","1","4","0","4","0","4","1","3","572.1000000238419","<div style=""color:green; font-size:75px;""><b>$0.02</b></div><br><br><br><br><table><tr><td><img src=static/images/oddball_up.png></td><td><img src=static/images/oddball_up.png></td><td><img src=static/images/oddball_down.png></td></tr></table>","69","1","","","","","","","","","","","","","","","","","",""
"","html-keyboard-response","128","402718","0.0-6.0-1.22-1.22","086","19","f","1666624363002","750","q","q","Only if I get the answer right","You win money","A fixed time limit","5","female","No","No","1","1","1","0","1","0","0","1","0","0","0","0","0","0","0","0","0","0","0","0","0","1","3","2","1","2","0","0","0","2","1","1","3","1","1","2","1","0","1","1","2","2","2","0","0","1","0","3","3","1","1","3","3","4","0","1","4","0","4","0","4","1","3","572.1000000238419","","e","","true","0","22","up","down","2","e","1","0","1666624766691","","","false","60","22","0.2833333333333333","0.02","false"
"","html-keyboard-response","129","403430","0.0-6.0-1.23-0.23","086","19","f","1666624363002","750","q","q","Only if I get the answer right","You win money","A fixed time limit","5","female","No","No","1","1","1","0","1","0","0","1","0","0","0","0","0","0","0","0","0","0","0","0","0","1","3","2","1","2","0","0","0","2","1","1","3","1","1","2","1","0","1","1","2","2","2","0","0","1","0","3","3","1","1","3","3","4","0","1","4","0","4","0","4","1","3","711.2999999523163","<div style=""color:green; font-size:75px;""><b>$0.02</b></div><br><br><br><br><table><tr><td><img src=static/images/oddball_down.png></td><td><img src=static/images/oddball_up.png></td><td><img src=static/images/oddball_down.png></td></tr></table>","87","1","","","","","","","","","","","","","","","","","",""
"","html-keyboard-response","130","403534","0.0-6.0-1.23-1.23","086","19","f","1666624363002","750","q","q","Only if I get the answer right","You win money","A fixed time limit","5","female","No","No","1","1","1","0","1","0","0","1","0","0","0","0","0","0","0","0","0","0","0","0","0","1","3","2","1","2","0","0","0","2","1","1","3","1","1","2","1","0","1","1","2","2","2","0","0","1","0","3","3","1","1","3","3","4","0","1","4","0","4","0","4","1","3","711.2999999523163","","w","","true","0","23","down","up","1","w","1","0","1666624767507","","","false","60","23","0.3","0.02","false"
"","html-keyboard-response","131","404158","0.0-6.0-1.24-0.24","086","19","f","1666624363002","750","q","q","Only if I get the answer right","You win money","A fixed time limit","5","female","No","No","1","1","1","0","1","0","0","1","0","0","0","0","0","0","0","0","0","0","0","0","0","1","3","2","1","2","0","0","0","2","1","1","3","1","1","2","1","0","1","1","2","2","2","0","0","1","0","3","3","1","1","3","3","4","0","1","4","0","4","0","4","1","3","623.2999999523163","<div style=""color:green; font-size:75px;""><b>$0.02</b></div><br><br><br><br><table><tr><td><img src=static/images/oddball_down.png></td><td><img src=static/images/oddball_up.png></td><td><img src=static/images/oddball_up.png></td></tr></table>","81","1","","","","","","","","","","","","","","","","","",""
"","html-keyboard-response","132","404263","0.0-6.0-1.24-1.24","086","19","f","1666624363002","750","q","q","Only if I get the answer right","You win money","A fixed time limit","5","female","No","No","1","1","1","0","1","0","0","1","0","0","0","0","0","0","0","0","0","0","0","0","0","1","3","2","1","2","0","0","0","2","1","1","3","1","1","2","1","0","1","1","2","2","2","0","0","1","0","3","3","1","1","3","3","4","0","1","4","0","4","0","4","1","3","623.2999999523163","","q","","true","0","24","up","down","0","q","1","0","1666624768236","","","false","60","24","0.31666666666666665","0.02","false"
"","html-keyboard-response","133","404888","0.0-6.0-1.25-0.25","086","19","f","1666624363002","750","q","q","Only if I get the answer right","You win money","A fixed time limit","5","female","No","No","1","1","1","0","1","0","0","1","0","0","0","0","0","0","0","0","0","0","0","0","0","1","3","2","1","2","0","0","0","2","1","1","3","1","1","2","1","0","1","1","2","2","2","0","0","1","0","3","3","1","1","3","3","4","0","1","4","0","4","0","4","1","3","615.2000000476837","<div style=""color:green; font-size:75px;""><b>$0.02</b></div><br><br><br><br><table><tr><td><img src=static/images/oddball_down.png></td><td><img src=static/images/oddball_up.png></td><td><img src=static/images/oddball_down.png></td></tr></table>","87","1","","","","","","","","","","","","","","","","","",""
"","html-keyboard-response","134","404997","0.0-6.0-1.25-1.25","086","19","f","1666624363002","750","q","q","Only if I get the answer right","You win money","A fixed time limit","5","female","No","No","1","1","1","0","1","0","0","1","0","0","0","0","0","0","0","0","0","0","0","0","0","1","3","2","1","2","0","0","0","2","1","1","3","1","1","2","1","0","1","1","2","2","2","0","0","1","0","3","3","1","1","3","3","4","0","1","4","0","4","0","4","1","3","615.2000000476837","","w","","true","0","25","down","up","1","w","1","0","1666624768970","","","false","60","25","0.3333333333333333","0.02","false"
"","html-keyboard-response","135","405519","0.0-6.0-1.26-0.26","086","19","f","1666624363002","750","q","q","Only if I get the answer right","You win money","A fixed time limit","5","female","No","No","1","1","1","0","1","0","0","1","0","0","0","0","0","0","0","0","0","0","0","0","0","1","3","2","1","2","0","0","0","2","1","1","3","1","1","2","1","0","1","1","2","2","2","0","0","1","0","3","3","1","1","3","3","4","0","1","4","0","4","0","4","1","3","520.5","<div style=""color:green; font-size:75px;""><b>$0.02</b></div><br><br><br><br><table><tr><td><img src=static/images/oddball_down.png></td><td><img src=static/images/oddball_up.png></td><td><img src=static/images/oddball_down.png></td></tr></table>","87","1","","","","","","","","","","","","","","","","","",""
"","html-keyboard-response","136","405632","0.0-6.0-1.26-1.26","086","19","f","1666624363002","750","q","q","Only if I get the answer right","You win money","A fixed time limit","5","female","No","No","1","1","1","0","1","0","0","1","0","0","0","0","0","0","0","0","0","0","0","0","0","1","3","2","1","2","0","0","0","2","1","1","3","1","1","2","1","0","1","1","2","2","2","0","0","1","0","3","3","1","1","3","3","4","0","1","4","0","4","0","4","1","3","520.5","","w","","true","0","26","down","up","1","w","1","0","1666624769605","","","false","60","26","0.35","0.02","false"
"","html-keyboard-response","137","406214","0.0-6.0-1.27-0.27","086","19","f","1666624363002","750","q","q","Only if I get the answer right","You win money","A fixed time limit","5","female","No","No","1","1","1","0","1","0","0","1","0","0","0","0","0","0","0","0","0","0","0","0","0","1","3","2","1","2","0","0","0","2","1","1","3","1","1","2","1","0","1","1","2","2","2","0","0","1","0","3","3","1","1","3","3","4","0","1","4","0","4","0","4","1","3","581.8999999761581","<div style=""color:green; font-size:75px;""><b>$0.02</b></div><br><br><br><br><table><tr><td><img src=static/images/oddball_up.png></td><td><img src=static/images/oddball_down.png></td><td><img src=static/images/oddball_up.png></td></tr></table>","87","1","","","","","","","","","","","","","","","","","",""
"","html-keyboard-response","138","406316","0.0-6.0-1.27-1.27","086","19","f","1666624363002","750","q","q","Only if I get the answer right","You win money","A fixed time limit","5","female","No","No","1","1","1","0","1","0","0","1","0","0","0","0","0","0","0","0","0","0","0","0","0","1","3","2","1","2","0","0","0","2","1","1","3","1","1","2","1","0","1","1","2","2","2","0","0","1","0","3","3","1","1","3","3","4","0","1","4","0","4","0","4","1","3","581.8999999761581","","w","","true","0","27","up","down","1","w","1","0","1666624770289","","","false","60","27","0.36666666666666664","0.02","false"
"","html-keyboard-response","139","406942","0.0-6.0-1.28-0.28","086","19","f","1666624363002","750","q","q","Only if I get the answer right","You win money","A fixed time limit","5","female","No","No","1","1","1","0","1","0","0","1","0","0","0","0","0","0","0","0","0","0","0","0","0","1","3","2","1","2","0","0","0","2","1","1","3","1","1","2","1","0","1","1","2","2","2","0","0","1","0","3","3","1","1","3","3","4","0","1","4","0","4","0","4","1","3","625.3999999761581","<div style=""color:green; font-size:75px;""><b>$0.02</b></div><br><br><br><br><table><tr><td><img src=static/images/oddball_up.png></td><td><img src=static/images/oddball_down.png></td><td><img src=static/images/oddball_down.png></td></tr></table>","81","1","","","","","","","","","","","","","","","","","",""
"","html-keyboard-response","140","407051","0.0-6.0-1.28-1.28","086","19","f","1666624363002","750","q","q","Only if I get the answer right","You win money","A fixed time limit","5","female","No","No","1","1","1","0","1","0","0","1","0","0","0","0","0","0","0","0","0","0","0","0","0","1","3","2","1","2","0","0","0","2","1","1","3","1","1","2","1","0","1","1","2","2","2","0","0","1","0","3","3","1","1","3","3","4","0","1","4","0","4","0","4","1","3","625.3999999761581","","q","","true","0","28","down","up","0","q","1","0","1666624771024","","","false","60","28","0.38333333333333336","0.02","false"
"","html-keyboard-response","141","407686","0.0-6.0-1.29-0.29","086","19","f","1666624363002","750","q","q","Only if I get the answer right","You win money","A fixed time limit","5","female","No","No","1","1","1","0","1","0","0","1","0","0","0","0","0","0","0","0","0","0","0","0","0","1","3","2","1","2","0","0","0","2","1","1","3","1","1","2","1","0","1","1","2","2","2","0","0","1","0","3","3","1","1","3","3","4","0","1","4","0","4","0","4","1","3","634.7999999523163","<div style=""color:green; font-size:75px;""><b>$0.02</b></div><br><br><br><br><table><tr><td><img src=static/images/oddball_up.png></td><td><img src=static/images/oddball_down.png></td><td><img src=static/images/oddball_up.png></td></tr></table>","87","1","","","","","","","","","","","","","","","","","",""
"","html-keyboard-response","142","407798","0.0-6.0-1.29-1.29","086","19","f","1666624363002","750","q","q","Only if I get the answer right","You win money","A fixed time limit","5","female","No","No","1","1","1","0","1","0","0","1","0","0","0","0","0","0","0","0","0","0","0","0","0","1","3","2","1","2","0","0","0","2","1","1","3","1","1","2","1","0","1","1","2","2","2","0","0","1","0","3","3","1","1","3","3","4","0","1","4","0","4","0","4","1","3","634.7999999523163","","w","","true","0","29","up","down","1","w","1","0","1666624771771","","","false","60","29","0.4","0.02","false"
"","html-keyboard-response","143","408278","0.0-6.0-1.30-0.30","086","19","f","1666624363002","750","q","q","Only if I get the answer right","You win money","A fixed time limit","5","female","No","No","1","1","1","0","1","0","0","1","0","0","0","0","0","0","0","0","0","0","0","0","0","1","3","2","1","2","0","0","0","2","1","1","3","1","1","2","1","0","1","1","2","2","2","0","0","1","0","3","3","1","1","3","3","4","0","1","4","0","4","0","4","1","3","479.1999999284744","<div style=""color:green; font-size:75px;""><b>$0.02</b></div><br><br><br><br><table><tr><td><img src=static/images/oddball_up.png></td><td><img src=static/images/oddball_up.png></td><td><img src=static/images/oddball_down.png></td></tr></table>","69","1","","","","","","","","","","","","","","","","","",""
"","html-keyboard-response","144","408386","0.0-6.0-1.30-1.30","086","19","f","1666624363002","750","q","q","Only if I get the answer right","You win money","A fixed time limit","5","female","No","No","1","1","1","0","1","0","0","1","0","0","0","0","0","0","0","0","0","0","0","0","0","1","3","2","1","2","0","0","0","2","1","1","3","1","1","2","1","0","1","1","2","2","2","0","0","1","0","3","3","1","1","3","3","4","0","1","4","0","4","0","4","1","3","479.1999999284744","","e","","true","0","30","up","down","2","e","1","0","1666624772360","","","false","60","30","0.4166666666666667","0.02","false"
"","html-keyboard-response","145","408870","0.0-6.0-1.31-0.31","086","19","f","1666624363002","750","q","q","Only if I get the answer right","You win money","A fixed time limit","5","female","No","No","1","1","1","0","1","0","0","1","0","0","0","0","0","0","0","0","0","0","0","0","0","1","3","2","1","2","0","0","0","2","1","1","3","1","1","2","1","0","1","1","2","2","2","0","0","1","0","3","3","1","1","3","3","4","0","1","4","0","4","0","4","1","3","483.1999999284744","<div style=""color:green; font-size:75px;""><b>$0.02</b></div><br><br><br><br><table><tr><td><img src=static/images/oddball_up.png></td><td><img src=static/images/oddball_down.png></td><td><img src=static/images/oddball_up.png></td></tr></table>","87","1","","","","","","","","","","","","","","","","","",""
"","html-keyboard-response","146","408971","0.0-6.0-1.31-1.31","086","19","f","1666624363002","750","q","q","Only if I get the answer right","You win money","A fixed time limit","5","female","No","No","1","1","1","0","1","0","0","1","0","0","0","0","0","0","0","0","0","0","0","0","0","1","3","2","1","2","0","0","0","2","1","1","3","1","1","2","1","0","1","1","2","2","2","0","0","1","0","3","3","1","1","3","3","4","0","1","4","0","4","0","4","1","3","483.1999999284744","","w","","true","0","31","up","down","1","w","1","0","1666624772944","","","false","60","31","0.43333333333333335","0.02","false"
"","html-keyboard-response","147","409726","0.0-6.0-1.32-0.32","086","19","f","1666624363002","750","q","q","Only if I get the answer right","You win money","A fixed time limit","5","female","No","No","1","1","1","0","1","0","0","1","0","0","0","0","0","0","0","0","0","0","0","0","0","1","3","2","1","2","0","0","0","2","1","1","3","1","1","2","1","0","1","1","2","2","2","0","0","1","0","3","3","1","1","3","3","4","0","1","4","0","4","0","4","1","3","null","<div style=""color:green; font-size:75px;""><b>$0.02</b></div><br><br><br><br><table><tr><td><img src=static/images/oddball_up.png></td><td><img src=static/images/oddball_down.png></td><td><img src=static/images/oddball_down.png></td></tr></table>","null","","","","","","","","","","","","","","","","","","",""
"","html-keyboard-response","148","409835","0.0-6.0-1.32-1.32","086","19","f","1666624363002","750","q","q","Only if I get the answer right","You win money","A fixed time limit","5","female","No","No","1","1","1","0","1","0","0","1","0","0","0","0","0","0","0","0","0","0","0","0","0","1","3","2","1","2","0","0","0","2","1","1","3","1","1","2","1","0","1","1","2","2","2","0","0","1","0","3","3","1","1","3","3","4","0","1","4","0","4","0","4","1","3","null","","null","","true","0","32","down","up","0","q","0","0","1666624773808","","","false","60","32","0.45","0.02","true"
"","html-keyboard-response","149","410382","0.0-6.0-1.33-0.33","086","19","f","1666624363002","750","q","q","Only if I get the answer right","You win money","A fixed time limit","5","female","No","No","1","1","1","0","1","0","0","1","0","0","0","0","0","0","0","0","0","0","0","0","0","1","3","2","1","2","0","0","0","2","1","1","3","1","1","2","1","0","1","1","2","2","2","0","0","1","0","3","3","1","1","3","3","4","0","1","4","0","4","0","4","1","3","547","<div style=""color:green; font-size:75px;""><b>$0.02</b></div><br><br><br><br><table><tr><td><img src=static/images/oddball_down.png></td><td><img src=static/images/oddball_up.png></td><td><img src=static/images/oddball_up.png></td></tr></table>","81","1","","","","","","","","","","","","","","","","","",""
"","html-keyboard-response","150","410490","0.0-6.0-1.33-1.33","086","19","f","1666624363002","750","q","q","Only if I get the answer right","You win money","A fixed time limit","5","female","No","No","1","1","1","0","1","0","0","1","0","0","0","0","0","0","0","0","0","0","0","0","0","1","3","2","1","2","0","0","0","2","1","1","3","1","1","2","1","0","1","1","2","2","2","0","0","1","0","3","3","1","1","3","3","4","0","1","4","0","4","0","4","1","3","547","","q","","true","0","33","up","down","0","q","1","0","1666624774463","","","false","60","33","0.45","0.02","false"
"","html-keyboard-response","151","411054","0.0-6.0-1.34-0.34","086","19","f","1666624363002","750","q","q","Only if I get the answer right","You win money","A fixed time limit","5","female","No","No","1","1","1","0","1","0","0","1","0","0","0","0","0","0","0","0","0","0","0","0","0","1","3","2","1","2","0","0","0","2","1","1","3","1","1","2","1","0","1","1","2","2","2","0","0","1","0","3","3","1","1","3","3","4","0","1","4","0","4","0","4","1","3","563.2999999523163","<div style=""color:green; font-size:75px;""><b>$0.02</b></div><br><br><br><br><table><tr><td><img src=static/images/oddball_up.png></td><td><img src=static/images/oddball_down.png></td><td><img src=static/images/oddball_down.png></td></tr></table>","81","1","","","","","","","","","","","","","","","","","",""
"","html-keyboard-response","152","411159","0.0-6.0-1.34-1.34","086","19","f","1666624363002","750","q","q","Only if I get the answer right","You win money","A fixed time limit","5","female","No","No","1","1","1","0","1","0","0","1","0","0","0","0","0","0","0","0","0","0","0","0","0","1","3","2","1","2","0","0","0","2","1","1","3","1","1","2","1","0","1","1","2","2","2","0","0","1","0","3","3","1","1","3","3","4","0","1","4","0","4","0","4","1","3","563.2999999523163","","q","","true","0","34","down","up","0","q","1","0","1666624775132","","","false","60","34","0.4666666666666667","0.02","false"
