"success","trial_type","trial_index","time_elapsed","internal_node_id","subject","age","sex","date","deadline","instQ1","instQ2","instQ3","instQ4","instQ5","totalInstQ","gender","strategy","comments","DASS1_s","DASS2_a","DASS3_d","DASS4_a","DASS5_d","DASS6_s","DASS7_a","DASS8_s","DASS9_a","DASS10_d","DASS11_s","DASS12_s","DASS13_d","DASS14_s","DASS15_a","DASS16_d","DASS17_d","DASS18_s","DASS19_a","DASS20_a","DASS21_d","BB1","BB2","BB3","BB4","BB5","BB6","BB7","BB8","BB9","BB10","BB11","BB12","BB13","BB14","BB15","BB16","BB17","BB18","BB19","BB20","BB21","BB22","BB23","BB24","NFC1","NFC2","NFC3","NFC4","NFC5","NFC6","NFC7","NFC8","NFC9","NFC10","NFC11","NFC12","NFC13","NFC14","NFC15","NFC16","NFC17","NFC18","rt","stimulus","key_press","npress","isDataTrial","block","trialinblock","common","odd","oddidx","correct_ans","accuracy","totalTokens","timestamp","responses","question_order","showprog","blocklen","trial","progress","reward","timedout"
"true","fullscreen",0,4010,"0.0-0.0",73,22,"f",1665680286941,750,"q","q","Only if I get the answer right","You win money","A fixed time limit",5,"Female","Accuracy is important as you will finish the task earlier if you get the selections right","The game is very fast and seemed to glitch sometimes.  I felt like when I fall behind the speed, it was very hard to catch back the tempo.  The speed should have been a bit sloer maybe, in order to let people concentrate.",2,2,3,0,1,0,0,1,0,0,0,2,0,0,0,0,0,1,0,1,0,1,3,1,1,1,0,1,2,1,1,1,2,0,1,2,1,0,0,0,1,2,2,0,0,2,3,1,1,2,2,2,4,3,3,2,1,2,4,3,2,1,3,"","","","","","","","","","","","","","","","","","","","","",""
"","image-keyboard-response",1,327391,"0.0-1.0-0.0",73,22,"f",1665680286941,750,"q","q","Only if I get the answer right","You win money","A fixed time limit",5,"Female","Accuracy is important as you will finish the task earlier if you get the selections right","The game is very fast and seemed to glitch sometimes.  I felt like when I fall behind the speed, it was very hard to catch back the tempo.  The speed should have been a bit sloer maybe, in order to let people concentrate.",2,2,3,0,1,0,0,1,0,0,0,2,0,0,0,0,0,1,0,1,0,1,3,1,1,1,0,1,2,1,1,1,2,0,1,2,1,0,0,0,1,2,2,0,0,2,3,1,1,2,2,2,4,3,3,2,1,2,4,3,2,1,3,"323373.19999999553","static/images/instructions/Slide1.png","39","","","","","","","","","","","","","","","","","","",""
"","image-keyboard-response",2,334348,"0.0-1.1-0.1",73,22,"f",1665680286941,750,"q","q","Only if I get the answer right","You win money","A fixed time limit",5,"Female","Accuracy is important as you will finish the task earlier if you get the selections right","The game is very fast and seemed to glitch sometimes.  I felt like when I fall behind the speed, it was very hard to catch back the tempo.  The speed should have been a bit sloer maybe, in order to let people concentrate.",2,2,3,0,1,0,0,1,0,0,0,2,0,0,0,0,0,1,0,1,0,1,3,1,1,1,0,1,2,1,1,1,2,0,1,2,1,0,0,0,1,2,2,0,0,2,3,1,1,2,2,2,4,3,3,2,1,2,4,3,2,1,3,"6956","static/images/instructions/Slide2.png","39","","","","","","","","","","","","","","","","","","",""
"","image-keyboard-response",3,343660,"0.0-1.2-0.2",73,22,"f",1665680286941,750,"q","q","Only if I get the answer right","You win money","A fixed time limit",5,"Female","Accuracy is important as you will finish the task earlier if you get the selections right","The game is very fast and seemed to glitch sometimes.  I felt like when I fall behind the speed, it was very hard to catch back the tempo.  The speed should have been a bit sloer maybe, in order to let people concentrate.",2,2,3,0,1,0,0,1,0,0,0,2,0,0,0,0,0,1,0,1,0,1,3,1,1,1,0,1,2,1,1,1,2,0,1,2,1,0,0,0,1,2,2,0,0,2,3,1,1,2,2,2,4,3,3,2,1,2,4,3,2,1,3,"9311.29999999702","static/images/instructions/Slide3.png","39","","","","","","","","","","","","","","","","","","",""
"","image-keyboard-response",4,349227,"0.0-1.3-0.3",73,22,"f",1665680286941,750,"q","q","Only if I get the answer right","You win money","A fixed time limit",5,"Female","Accuracy is important as you will finish the task earlier if you get the selections right","The game is very fast and seemed to glitch sometimes.  I felt like when I fall behind the speed, it was very hard to catch back the tempo.  The speed should have been a bit sloer maybe, in order to let people concentrate.",2,2,3,0,1,0,0,1,0,0,0,2,0,0,0,0,0,1,0,1,0,1,3,1,1,1,0,1,2,1,1,1,2,0,1,2,1,0,0,0,1,2,2,0,0,2,3,1,1,2,2,2,4,3,3,2,1,2,4,3,2,1,3,"5566.89999999851","static/images/instructions/Slide4.png","39","","","","","","","","","","","","","","","","","","",""
"","image-keyboard-response",5,352660,"0.0-1.4-0.4",73,22,"f",1665680286941,750,"q","q","Only if I get the answer right","You win money","A fixed time limit",5,"Female","Accuracy is important as you will finish the task earlier if you get the selections right","The game is very fast and seemed to glitch sometimes.  I felt like when I fall behind the speed, it was very hard to catch back the tempo.  The speed should have been a bit sloer maybe, in order to let people concentrate.",2,2,3,0,1,0,0,1,0,0,0,2,0,0,0,0,0,1,0,1,0,1,3,1,1,1,0,1,2,1,1,1,2,0,1,2,1,0,0,0,1,2,2,0,0,2,3,1,1,2,2,2,4,3,3,2,1,2,4,3,2,1,3,"3431.5999999940395","static/images/instructions/Slide5.png","39","","","","","","","","","","","","","","","","","","",""
"","image-keyboard-response",6,356548,"0.0-1.5-0.5",73,22,"f",1665680286941,750,"q","q","Only if I get the answer right","You win money","A fixed time limit",5,"Female","Accuracy is important as you will finish the task earlier if you get the selections right","The game is very fast and seemed to glitch sometimes.  I felt like when I fall behind the speed, it was very hard to catch back the tempo.  The speed should have been a bit sloer maybe, in order to let people concentrate.",2,2,3,0,1,0,0,1,0,0,0,2,0,0,0,0,0,1,0,1,0,1,3,1,1,1,0,1,2,1,1,1,2,0,1,2,1,0,0,0,1,2,2,0,0,2,3,1,1,2,2,2,4,3,3,2,1,2,4,3,2,1,3,"3887.39999999851","static/images/instructions/Slide6.png","39","","","","","","","","","","","","","","","","","","",""
"","image-keyboard-response",7,401723,"0.0-1.6-0.6",73,22,"f",1665680286941,750,"q","q","Only if I get the answer right","You win money","A fixed time limit",5,"Female","Accuracy is important as you will finish the task earlier if you get the selections right","The game is very fast and seemed to glitch sometimes.  I felt like when I fall behind the speed, it was very hard to catch back the tempo.  The speed should have been a bit sloer maybe, in order to let people concentrate.",2,2,3,0,1,0,0,1,0,0,0,2,0,0,0,0,0,1,0,1,0,1,3,1,1,1,0,1,2,1,1,1,2,0,1,2,1,0,0,0,1,2,2,0,0,2,3,1,1,2,2,2,4,3,3,2,1,2,4,3,2,1,3,"45183.39999999851","static/images/instructions/Slide7.png","39","","","","","","","","","","","","","","","","","","",""
"","html-keyboard-response",8,404411,"0.0-2.0-0.0",73,22,"f",1665680286941,750,"q","q","Only if I get the answer right","You win money","A fixed time limit",5,"Female","Accuracy is important as you will finish the task earlier if you get the selections right","The game is very fast and seemed to glitch sometimes.  I felt like when I fall behind the speed, it was very hard to catch back the tempo.  The speed should have been a bit sloer maybe, in order to let people concentrate.",2,2,3,0,1,0,0,1,0,0,0,2,0,0,0,0,0,1,0,1,0,1,3,1,1,1,0,1,2,1,1,1,2,0,1,2,1,0,0,0,1,2,2,0,0,2,3,1,1,2,2,2,4,3,3,2,1,2,4,3,2,1,3,"2686.5","<br><br><br><br><table><tr><td><img src=static/images/oddball_up.png></td><td><img src=static/images/oddball_down.png></td><td><img src=static/images/oddball_up.png></td></tr></table>","87","1","","","","","","","","","","","","","","","","","",""
"","html-keyboard-response",9,406919,"0.0-2.0-1.0",73,22,"f",1665680286941,750,"q","q","Only if I get the answer right","You win money","A fixed time limit",5,"Female","Accuracy is important as you will finish the task earlier if you get the selections right","The game is very fast and seemed to glitch sometimes.  I felt like when I fall behind the speed, it was very hard to catch back the tempo.  The speed should have been a bit sloer maybe, in order to let people concentrate.",2,2,3,0,1,0,0,1,0,0,0,2,0,0,0,0,0,1,0,1,0,1,3,1,1,1,0,1,2,1,1,1,2,0,1,2,1,0,0,0,1,2,2,0,0,2,3,1,1,2,2,2,4,3,3,2,1,2,4,3,2,1,3,"null","<div style=""font-size:75px;""><b>Correct</b></div>","null","","","","","","","","","","","","","","","","","","",""
"","html-keyboard-response",10,407921,"0.0-2.0-2.0",73,22,"f",1665680286941,750,"q","q","Only if I get the answer right","You win money","A fixed time limit",5,"Female","Accuracy is important as you will finish the task earlier if you get the selections right","The game is very fast and seemed to glitch sometimes.  I felt like when I fall behind the speed, it was very hard to catch back the tempo.  The speed should have been a bit sloer maybe, in order to let people concentrate.",2,2,3,0,1,0,0,1,0,0,0,2,0,0,0,0,0,1,0,1,0,1,3,1,1,1,0,1,2,1,1,1,2,0,1,2,1,0,0,0,1,2,2,0,0,2,3,1,1,2,2,2,4,3,3,2,1,2,4,3,2,1,3,"2686.5","","w","","true","practice","0","up","down","1","w","1","0","1665680695158","","","","","","","",""
"","html-keyboard-response",11,408611,"0.0-2.1-0.1",73,22,"f",1665680286941,750,"q","q","Only if I get the answer right","You win money","A fixed time limit",5,"Female","Accuracy is important as you will finish the task earlier if you get the selections right","The game is very fast and seemed to glitch sometimes.  I felt like when I fall behind the speed, it was very hard to catch back the tempo.  The speed should have been a bit sloer maybe, in order to let people concentrate.",2,2,3,0,1,0,0,1,0,0,0,2,0,0,0,0,0,1,0,1,0,1,3,1,1,1,0,1,2,1,1,1,2,0,1,2,1,0,0,0,1,2,2,0,0,2,3,1,1,2,2,2,4,3,3,2,1,2,4,3,2,1,3,"689.1000000014901","<br><br><br><br><table><tr><td><img src=static/images/oddball_up.png></td><td><img src=static/images/oddball_down.png></td><td><img src=static/images/oddball_down.png></td></tr></table>","81","1","","","","","","","","","","","","","","","","","",""
"","html-keyboard-response",12,411123,"0.0-2.1-1.1",73,22,"f",1665680286941,750,"q","q","Only if I get the answer right","You win money","A fixed time limit",5,"Female","Accuracy is important as you will finish the task earlier if you get the selections right","The game is very fast and seemed to glitch sometimes.  I felt like when I fall behind the speed, it was very hard to catch back the tempo.  The speed should have been a bit sloer maybe, in order to let people concentrate.",2,2,3,0,1,0,0,1,0,0,0,2,0,0,0,0,0,1,0,1,0,1,3,1,1,1,0,1,2,1,1,1,2,0,1,2,1,0,0,0,1,2,2,0,0,2,3,1,1,2,2,2,4,3,3,2,1,2,4,3,2,1,3,"null","<div style=""font-size:75px;""><b>Correct</b></div>","null","","","","","","","","","","","","","","","","","","",""
"","html-keyboard-response",13,412127,"0.0-2.1-2.1",73,22,"f",1665680286941,750,"q","q","Only if I get the answer right","You win money","A fixed time limit",5,"Female","Accuracy is important as you will finish the task earlier if you get the selections right","The game is very fast and seemed to glitch sometimes.  I felt like when I fall behind the speed, it was very hard to catch back the tempo.  The speed should have been a bit sloer maybe, in order to let people concentrate.",2,2,3,0,1,0,0,1,0,0,0,2,0,0,0,0,0,1,0,1,0,1,3,1,1,1,0,1,2,1,1,1,2,0,1,2,1,0,0,0,1,2,2,0,0,2,3,1,1,2,2,2,4,3,3,2,1,2,4,3,2,1,3,"689.1000000014901","","q","","true","practice","1","down","up","0","q","1","0","1665680699364","","","","","","","",""
"","html-keyboard-response",14,412722,"0.0-2.2-0.2",73,22,"f",1665680286941,750,"q","q","Only if I get the answer right","You win money","A fixed time limit",5,"Female","Accuracy is important as you will finish the task earlier if you get the selections right","The game is very fast and seemed to glitch sometimes.  I felt like when I fall behind the speed, it was very hard to catch back the tempo.  The speed should have been a bit sloer maybe, in order to let people concentrate.",2,2,3,0,1,0,0,1,0,0,0,2,0,0,0,0,0,1,0,1,0,1,3,1,1,1,0,1,2,1,1,1,2,0,1,2,1,0,0,0,1,2,2,0,0,2,3,1,1,2,2,2,4,3,3,2,1,2,4,3,2,1,3,"594.6999999955297","<br><br><br><br><table><tr><td><img src=static/images/oddball_up.png></td><td><img src=static/images/oddball_up.png></td><td><img src=static/images/oddball_down.png></td></tr></table>","69","1","","","","","","","","","","","","","","","","","",""
"","html-keyboard-response",15,415231,"0.0-2.2-1.2",73,22,"f",1665680286941,750,"q","q","Only if I get the answer right","You win money","A fixed time limit",5,"Female","Accuracy is important as you will finish the task earlier if you get the selections right","The game is very fast and seemed to glitch sometimes.  I felt like when I fall behind the speed, it was very hard to catch back the tempo.  The speed should have been a bit sloer maybe, in order to let people concentrate.",2,2,3,0,1,0,0,1,0,0,0,2,0,0,0,0,0,1,0,1,0,1,3,1,1,1,0,1,2,1,1,1,2,0,1,2,1,0,0,0,1,2,2,0,0,2,3,1,1,2,2,2,4,3,3,2,1,2,4,3,2,1,3,"null","<div style=""font-size:75px;""><b>Correct</b></div>","null","","","","","","","","","","","","","","","","","","",""
"","html-keyboard-response",16,416237,"0.0-2.2-2.2",73,22,"f",1665680286941,750,"q","q","Only if I get the answer right","You win money","A fixed time limit",5,"Female","Accuracy is important as you will finish the task earlier if you get the selections right","The game is very fast and seemed to glitch sometimes.  I felt like when I fall behind the speed, it was very hard to catch back the tempo.  The speed should have been a bit sloer maybe, in order to let people concentrate.",2,2,3,0,1,0,0,1,0,0,0,2,0,0,0,0,0,1,0,1,0,1,3,1,1,1,0,1,2,1,1,1,2,0,1,2,1,0,0,0,1,2,2,0,0,2,3,1,1,2,2,2,4,3,3,2,1,2,4,3,2,1,3,"594.6999999955297","","e","","true","practice","2","up","down","2","e","1","0","1665680703474","","","","","","","",""
"","html-keyboard-response",17,416955,"0.0-2.3-0.3",73,22,"f",1665680286941,750,"q","q","Only if I get the answer right","You win money","A fixed time limit",5,"Female","Accuracy is important as you will finish the task earlier if you get the selections right","The game is very fast and seemed to glitch sometimes.  I felt like when I fall behind the speed, it was very hard to catch back the tempo.  The speed should have been a bit sloer maybe, in order to let people concentrate.",2,2,3,0,1,0,0,1,0,0,0,2,0,0,0,0,0,1,0,1,0,1,3,1,1,1,0,1,2,1,1,1,2,0,1,2,1,0,0,0,1,2,2,0,0,2,3,1,1,2,2,2,4,3,3,2,1,2,4,3,2,1,3,"717.1999999955297","<br><br><br><br><table><tr><td><img src=static/images/oddball_up.png></td><td><img src=static/images/oddball_down.png></td><td><img src=static/images/oddball_up.png></td></tr></table>","87","1","","","","","","","","","","","","","","","","","",""
"","html-keyboard-response",18,419456,"0.0-2.3-1.3",73,22,"f",1665680286941,750,"q","q","Only if I get the answer right","You win money","A fixed time limit",5,"Female","Accuracy is important as you will finish the task earlier if you get the selections right","The game is very fast and seemed to glitch sometimes.  I felt like when I fall behind the speed, it was very hard to catch back the tempo.  The speed should have been a bit sloer maybe, in order to let people concentrate.",2,2,3,0,1,0,0,1,0,0,0,2,0,0,0,0,0,1,0,1,0,1,3,1,1,1,0,1,2,1,1,1,2,0,1,2,1,0,0,0,1,2,2,0,0,2,3,1,1,2,2,2,4,3,3,2,1,2,4,3,2,1,3,"null","<div style=""font-size:75px;""><b>Correct</b></div>","null","","","","","","","","","","","","","","","","","","",""
"","html-keyboard-response",19,420462,"0.0-2.3-2.3",73,22,"f",1665680286941,750,"q","q","Only if I get the answer right","You win money","A fixed time limit",5,"Female","Accuracy is important as you will finish the task earlier if you get the selections right","The game is very fast and seemed to glitch sometimes.  I felt like when I fall behind the speed, it was very hard to catch back the tempo.  The speed should have been a bit sloer maybe, in order to let people concentrate.",2,2,3,0,1,0,0,1,0,0,0,2,0,0,0,0,0,1,0,1,0,1,3,1,1,1,0,1,2,1,1,1,2,0,1,2,1,0,0,0,1,2,2,0,0,2,3,1,1,2,2,2,4,3,3,2,1,2,4,3,2,1,3,"717.1999999955297","","w","","true","practice","3","up","down","1","w","1","0","1665680707699","","","","","","","",""
"","html-keyboard-response",20,421162,"0.0-2.4-0.4",73,22,"f",1665680286941,750,"q","q","Only if I get the answer right","You win money","A fixed time limit",5,"Female","Accuracy is important as you will finish the task earlier if you get the selections right","The game is very fast and seemed to glitch sometimes.  I felt like when I fall behind the speed, it was very hard to catch back the tempo.  The speed should have been a bit sloer maybe, in order to let people concentrate.",2,2,3,0,1,0,0,1,0,0,0,2,0,0,0,0,0,1,0,1,0,1,3,1,1,1,0,1,2,1,1,1,2,0,1,2,1,0,0,0,1,2,2,0,0,2,3,1,1,2,2,2,4,3,3,2,1,2,4,3,2,1,3,"699.3000000044703","<br><br><br><br><table><tr><td><img src=static/images/oddball_up.png></td><td><img src=static/images/oddball_down.png></td><td><img src=static/images/oddball_down.png></td></tr></table>","81","1","","","","","","","","","","","","","","","","","",""
"","html-keyboard-response",21,423666,"0.0-2.4-1.4",73,22,"f",1665680286941,750,"q","q","Only if I get the answer right","You win money","A fixed time limit",5,"Female","Accuracy is important as you will finish the task earlier if you get the selections right","The game is very fast and seemed to glitch sometimes.  I felt like when I fall behind the speed, it was very hard to catch back the tempo.  The speed should have been a bit sloer maybe, in order to let people concentrate.",2,2,3,0,1,0,0,1,0,0,0,2,0,0,0,0,0,1,0,1,0,1,3,1,1,1,0,1,2,1,1,1,2,0,1,2,1,0,0,0,1,2,2,0,0,2,3,1,1,2,2,2,4,3,3,2,1,2,4,3,2,1,3,"null","<div style=""font-size:75px;""><b>Correct</b></div>","null","","","","","","","","","","","","","","","","","","",""
"","html-keyboard-response",22,424669,"0.0-2.4-2.4",73,22,"f",1665680286941,750,"q","q","Only if I get the answer right","You win money","A fixed time limit",5,"Female","Accuracy is important as you will finish the task earlier if you get the selections right","The game is very fast and seemed to glitch sometimes.  I felt like when I fall behind the speed, it was very hard to catch back the tempo.  The speed should have been a bit sloer maybe, in order to let people concentrate.",2,2,3,0,1,0,0,1,0,0,0,2,0,0,0,0,0,1,0,1,0,1,3,1,1,1,0,1,2,1,1,1,2,0,1,2,1,0,0,0,1,2,2,0,0,2,3,1,1,2,2,2,4,3,3,2,1,2,4,3,2,1,3,"699.3000000044703","","q","","true","practice","4","down","up","0","q","1","0","1665680711906","","","","","","","",""
"","html-keyboard-response",23,426194,"0.0-2.5-0.5",73,22,"f",1665680286941,750,"q","q","Only if I get the answer right","You win money","A fixed time limit",5,"Female","Accuracy is important as you will finish the task earlier if you get the selections right","The game is very fast and seemed to glitch sometimes.  I felt like when I fall behind the speed, it was very hard to catch back the tempo.  The speed should have been a bit sloer maybe, in order to let people concentrate.",2,2,3,0,1,0,0,1,0,0,0,2,0,0,0,0,0,1,0,1,0,1,3,1,1,1,0,1,2,1,1,1,2,0,1,2,1,0,0,0,1,2,2,0,0,2,3,1,1,2,2,2,4,3,3,2,1,2,4,3,2,1,3,"1524.8999999985099","<br><br><br><br><table><tr><td><img src=static/images/oddball_down.png></td><td><img src=static/images/oddball_up.png></td><td><img src=static/images/oddball_down.png></td></tr></table>","87","1","","","","","","","","","","","","","","","","","",""
"","html-keyboard-response",24,428705,"0.0-2.5-1.5",73,22,"f",1665680286941,750,"q","q","Only if I get the answer right","You win money","A fixed time limit",5,"Female","Accuracy is important as you will finish the task earlier if you get the selections right","The game is very fast and seemed to glitch sometimes.  I felt like when I fall behind the speed, it was very hard to catch back the tempo.  The speed should have been a bit sloer maybe, in order to let people concentrate.",2,2,3,0,1,0,0,1,0,0,0,2,0,0,0,0,0,1,0,1,0,1,3,1,1,1,0,1,2,1,1,1,2,0,1,2,1,0,0,0,1,2,2,0,0,2,3,1,1,2,2,2,4,3,3,2,1,2,4,3,2,1,3,"null","<div style=""font-size:75px;""><b>Correct</b></div>","null","","","","","","","","","","","","","","","","","","",""
"","html-keyboard-response",25,429710,"0.0-2.5-2.5",73,22,"f",1665680286941,750,"q","q","Only if I get the answer right","You win money","A fixed time limit",5,"Female","Accuracy is important as you will finish the task earlier if you get the selections right","The game is very fast and seemed to glitch sometimes.  I felt like when I fall behind the speed, it was very hard to catch back the tempo.  The speed should have been a bit sloer maybe, in order to let people concentrate.",2,2,3,0,1,0,0,1,0,0,0,2,0,0,0,0,0,1,0,1,0,1,3,1,1,1,0,1,2,1,1,1,2,0,1,2,1,0,0,0,1,2,2,0,0,2,3,1,1,2,2,2,4,3,3,2,1,2,4,3,2,1,3,"1524.8999999985099","","w","","true","practice","5","down","up","1","w","1","0","1665680716948","","","","","","","",""
"","html-keyboard-response",26,430443,"0.0-2.6-0.6",73,22,"f",1665680286941,750,"q","q","Only if I get the answer right","You win money","A fixed time limit",5,"Female","Accuracy is important as you will finish the task earlier if you get the selections right","The game is very fast and seemed to glitch sometimes.  I felt like when I fall behind the speed, it was very hard to catch back the tempo.  The speed should have been a bit sloer maybe, in order to let people concentrate.",2,2,3,0,1,0,0,1,0,0,0,2,0,0,0,0,0,1,0,1,0,1,3,1,1,1,0,1,2,1,1,1,2,0,1,2,1,0,0,0,1,2,2,0,0,2,3,1,1,2,2,2,4,3,3,2,1,2,4,3,2,1,3,"731.5","<br><br><br><br><table><tr><td><img src=static/images/oddball_up.png></td><td><img src=static/images/oddball_up.png></td><td><img src=static/images/oddball_down.png></td></tr></table>","69","1","","","","","","","","","","","","","","","","","",""
"","html-keyboard-response",27,432947,"0.0-2.6-1.6",73,22,"f",1665680286941,750,"q","q","Only if I get the answer right","You win money","A fixed time limit",5,"Female","Accuracy is important as you will finish the task earlier if you get the selections right","The game is very fast and seemed to glitch sometimes.  I felt like when I fall behind the speed, it was very hard to catch back the tempo.  The speed should have been a bit sloer maybe, in order to let people concentrate.",2,2,3,0,1,0,0,1,0,0,0,2,0,0,0,0,0,1,0,1,0,1,3,1,1,1,0,1,2,1,1,1,2,0,1,2,1,0,0,0,1,2,2,0,0,2,3,1,1,2,2,2,4,3,3,2,1,2,4,3,2,1,3,"null","<div style=""font-size:75px;""><b>Correct</b></div>","null","","","","","","","","","","","","","","","","","","",""
"","html-keyboard-response",28,433951,"0.0-2.6-2.6",73,22,"f",1665680286941,750,"q","q","Only if I get the answer right","You win money","A fixed time limit",5,"Female","Accuracy is important as you will finish the task earlier if you get the selections right","The game is very fast and seemed to glitch sometimes.  I felt like when I fall behind the speed, it was very hard to catch back the tempo.  The speed should have been a bit sloer maybe, in order to let people concentrate.",2,2,3,0,1,0,0,1,0,0,0,2,0,0,0,0,0,1,0,1,0,1,3,1,1,1,0,1,2,1,1,1,2,0,1,2,1,0,0,0,1,2,2,0,0,2,3,1,1,2,2,2,4,3,3,2,1,2,4,3,2,1,3,"731.5","","e","","true","practice","6","up","down","2","e","1","0","1665680721188","","","","","","","",""
"","html-keyboard-response",29,434586,"0.0-2.7-0.7",73,22,"f",1665680286941,750,"q","q","Only if I get the answer right","You win money","A fixed time limit",5,"Female","Accuracy is important as you will finish the task earlier if you get the selections right","The game is very fast and seemed to glitch sometimes.  I felt like when I fall behind the speed, it was very hard to catch back the tempo.  The speed should have been a bit sloer maybe, in order to let people concentrate.",2,2,3,0,1,0,0,1,0,0,0,2,0,0,0,0,0,1,0,1,0,1,3,1,1,1,0,1,2,1,1,1,2,0,1,2,1,0,0,0,1,2,2,0,0,2,3,1,1,2,2,2,4,3,3,2,1,2,4,3,2,1,3,"634.2000000029802","<br><br><br><br><table><tr><td><img src=static/images/oddball_up.png></td><td><img src=static/images/oddball_down.png></td><td><img src=static/images/oddball_down.png></td></tr></table>","81","1","","","","","","","","","","","","","","","","","",""
"","html-keyboard-response",30,437090,"0.0-2.7-1.7",73,22,"f",1665680286941,750,"q","q","Only if I get the answer right","You win money","A fixed time limit",5,"Female","Accuracy is important as you will finish the task earlier if you get the selections right","The game is very fast and seemed to glitch sometimes.  I felt like when I fall behind the speed, it was very hard to catch back the tempo.  The speed should have been a bit sloer maybe, in order to let people concentrate.",2,2,3,0,1,0,0,1,0,0,0,2,0,0,0,0,0,1,0,1,0,1,3,1,1,1,0,1,2,1,1,1,2,0,1,2,1,0,0,0,1,2,2,0,0,2,3,1,1,2,2,2,4,3,3,2,1,2,4,3,2,1,3,"null","<div style=""font-size:75px;""><b>Correct</b></div>","null","","","","","","","","","","","","","","","","","","",""
"","html-keyboard-response",31,438094,"0.0-2.7-2.7",73,22,"f",1665680286941,750,"q","q","Only if I get the answer right","You win money","A fixed time limit",5,"Female","Accuracy is important as you will finish the task earlier if you get the selections right","The game is very fast and seemed to glitch sometimes.  I felt like when I fall behind the speed, it was very hard to catch back the tempo.  The speed should have been a bit sloer maybe, in order to let people concentrate.",2,2,3,0,1,0,0,1,0,0,0,2,0,0,0,0,0,1,0,1,0,1,3,1,1,1,0,1,2,1,1,1,2,0,1,2,1,0,0,0,1,2,2,0,0,2,3,1,1,2,2,2,4,3,3,2,1,2,4,3,2,1,3,"634.2000000029802","","q","","true","practice","7","down","up","0","q","1","0","1665680725331","","","","","","","",""
"","html-keyboard-response",32,438834,"0.0-2.8-0.8",73,22,"f",1665680286941,750,"q","q","Only if I get the answer right","You win money","A fixed time limit",5,"Female","Accuracy is important as you will finish the task earlier if you get the selections right","The game is very fast and seemed to glitch sometimes.  I felt like when I fall behind the speed, it was very hard to catch back the tempo.  The speed should have been a bit sloer maybe, in order to let people concentrate.",2,2,3,0,1,0,0,1,0,0,0,2,0,0,0,0,0,1,0,1,0,1,3,1,1,1,0,1,2,1,1,1,2,0,1,2,1,0,0,0,1,2,2,0,0,2,3,1,1,2,2,2,4,3,3,2,1,2,4,3,2,1,3,"739.4000000059605","<br><br><br><br><table><tr><td><img src=static/images/oddball_up.png></td><td><img src=static/images/oddball_down.png></td><td><img src=static/images/oddball_up.png></td></tr></table>","87","1","","","","","","","","","","","","","","","","","",""
"","html-keyboard-response",33,441346,"0.0-2.8-1.8",73,22,"f",1665680286941,750,"q","q","Only if I get the answer right","You win money","A fixed time limit",5,"Female","Accuracy is important as you will finish the task earlier if you get the selections right","The game is very fast and seemed to glitch sometimes.  I felt like when I fall behind the speed, it was very hard to catch back the tempo.  The speed should have been a bit sloer maybe, in order to let people concentrate.",2,2,3,0,1,0,0,1,0,0,0,2,0,0,0,0,0,1,0,1,0,1,3,1,1,1,0,1,2,1,1,1,2,0,1,2,1,0,0,0,1,2,2,0,0,2,3,1,1,2,2,2,4,3,3,2,1,2,4,3,2,1,3,"null","<div style=""font-size:75px;""><b>Correct</b></div>","null","","","","","","","","","","","","","","","","","","",""
"","html-keyboard-response",34,442351,"0.0-2.8-2.8",73,22,"f",1665680286941,750,"q","q","Only if I get the answer right","You win money","A fixed time limit",5,"Female","Accuracy is important as you will finish the task earlier if you get the selections right","The game is very fast and seemed to glitch sometimes.  I felt like when I fall behind the speed, it was very hard to catch back the tempo.  The speed should have been a bit sloer maybe, in order to let people concentrate.",2,2,3,0,1,0,0,1,0,0,0,2,0,0,0,0,0,1,0,1,0,1,3,1,1,1,0,1,2,1,1,1,2,0,1,2,1,0,0,0,1,2,2,0,0,2,3,1,1,2,2,2,4,3,3,2,1,2,4,3,2,1,3,"739.4000000059605","","w","","true","practice","8","up","down","1","w","1","0","1665680729588","","","","","","","",""
"","html-keyboard-response",35,442802,"0.0-2.9-0.9",73,22,"f",1665680286941,750,"q","q","Only if I get the answer right","You win money","A fixed time limit",5,"Female","Accuracy is important as you will finish the task earlier if you get the selections right","The game is very fast and seemed to glitch sometimes.  I felt like when I fall behind the speed, it was very hard to catch back the tempo.  The speed should have been a bit sloer maybe, in order to let people concentrate.",2,2,3,0,1,0,0,1,0,0,0,2,0,0,0,0,0,1,0,1,0,1,3,1,1,1,0,1,2,1,1,1,2,0,1,2,1,0,0,0,1,2,2,0,0,2,3,1,1,2,2,2,4,3,3,2,1,2,4,3,2,1,3,"450.20000000298023","<br><br><br><br><table><tr><td><img src=static/images/oddball_up.png></td><td><img src=static/images/oddball_up.png></td><td><img src=static/images/oddball_down.png></td></tr></table>","69","1","","","","","","","","","","","","","","","","","",""
"","html-keyboard-response",36,445306,"0.0-2.9-1.9",73,22,"f",1665680286941,750,"q","q","Only if I get the answer right","You win money","A fixed time limit",5,"Female","Accuracy is important as you will finish the task earlier if you get the selections right","The game is very fast and seemed to glitch sometimes.  I felt like when I fall behind the speed, it was very hard to catch back the tempo.  The speed should have been a bit sloer maybe, in order to let people concentrate.",2,2,3,0,1,0,0,1,0,0,0,2,0,0,0,0,0,1,0,1,0,1,3,1,1,1,0,1,2,1,1,1,2,0,1,2,1,0,0,0,1,2,2,0,0,2,3,1,1,2,2,2,4,3,3,2,1,2,4,3,2,1,3,"null","<div style=""font-size:75px;""><b>Correct</b></div>","null","","","","","","","","","","","","","","","","","","",""
"","html-keyboard-response",37,446310,"0.0-2.9-2.9",73,22,"f",1665680286941,750,"q","q","Only if I get the answer right","You win money","A fixed time limit",5,"Female","Accuracy is important as you will finish the task earlier if you get the selections right","The game is very fast and seemed to glitch sometimes.  I felt like when I fall behind the speed, it was very hard to catch back the tempo.  The speed should have been a bit sloer maybe, in order to let people concentrate.",2,2,3,0,1,0,0,1,0,0,0,2,0,0,0,0,0,1,0,1,0,1,3,1,1,1,0,1,2,1,1,1,2,0,1,2,1,0,0,0,1,2,2,0,0,2,3,1,1,2,2,2,4,3,3,2,1,2,4,3,2,1,3,"450.20000000298023","","e","","true","practice","9","up","down","2","e","1","0","1665680733547","","","","","","","",""
"","html-keyboard-response",38,446882,"0.0-2.10-0.10",73,22,"f",1665680286941,750,"q","q","Only if I get the answer right","You win money","A fixed time limit",5,"Female","Accuracy is important as you will finish the task earlier if you get the selections right","The game is very fast and seemed to glitch sometimes.  I felt like when I fall behind the speed, it was very hard to catch back the tempo.  The speed should have been a bit sloer maybe, in order to let people concentrate.",2,2,3,0,1,0,0,1,0,0,0,2,0,0,0,0,0,1,0,1,0,1,3,1,1,1,0,1,2,1,1,1,2,0,1,2,1,0,0,0,1,2,2,0,0,2,3,1,1,2,2,2,4,3,3,2,1,2,4,3,2,1,3,"572.2999999970198","<br><br><br><br><table><tr><td><img src=static/images/oddball_down.png></td><td><img src=static/images/oddball_down.png></td><td><img src=static/images/oddball_up.png></td></tr></table>","69","1","","","","","","","","","","","","","","","","","",""
"","html-keyboard-response",39,449395,"0.0-2.10-1.10",73,22,"f",1665680286941,750,"q","q","Only if I get the answer right","You win money","A fixed time limit",5,"Female","Accuracy is important as you will finish the task earlier if you get the selections right","The game is very fast and seemed to glitch sometimes.  I felt like when I fall behind the speed, it was very hard to catch back the tempo.  The speed should have been a bit sloer maybe, in order to let people concentrate.",2,2,3,0,1,0,0,1,0,0,0,2,0,0,0,0,0,1,0,1,0,1,3,1,1,1,0,1,2,1,1,1,2,0,1,2,1,0,0,0,1,2,2,0,0,2,3,1,1,2,2,2,4,3,3,2,1,2,4,3,2,1,3,"null","<div style=""font-size:75px;""><b>Correct</b></div>","null","","","","","","","","","","","","","","","","","","",""
"","html-keyboard-response",40,450400,"0.0-2.10-2.10",73,22,"f",1665680286941,750,"q","q","Only if I get the answer right","You win money","A fixed time limit",5,"Female","Accuracy is important as you will finish the task earlier if you get the selections right","The game is very fast and seemed to glitch sometimes.  I felt like when I fall behind the speed, it was very hard to catch back the tempo.  The speed should have been a bit sloer maybe, in order to let people concentrate.",2,2,3,0,1,0,0,1,0,0,0,2,0,0,0,0,0,1,0,1,0,1,3,1,1,1,0,1,2,1,1,1,2,0,1,2,1,0,0,0,1,2,2,0,0,2,3,1,1,2,2,2,4,3,3,2,1,2,4,3,2,1,3,"572.2999999970198","","e","","true","practice","10","down","up","2","e","1","0","1665680737637","","","","","","","",""
"","html-keyboard-response",41,450867,"0.0-2.11-0.11",73,22,"f",1665680286941,750,"q","q","Only if I get the answer right","You win money","A fixed time limit",5,"Female","Accuracy is important as you will finish the task earlier if you get the selections right","The game is very fast and seemed to glitch sometimes.  I felt like when I fall behind the speed, it was very hard to catch back the tempo.  The speed should have been a bit sloer maybe, in order to let people concentrate.",2,2,3,0,1,0,0,1,0,0,0,2,0,0,0,0,0,1,0,1,0,1,3,1,1,1,0,1,2,1,1,1,2,0,1,2,1,0,0,0,1,2,2,0,0,2,3,1,1,2,2,2,4,3,3,2,1,2,4,3,2,1,3,"466.5","<br><br><br><br><table><tr><td><img src=static/images/oddball_up.png></td><td><img src=static/images/oddball_down.png></td><td><img src=static/images/oddball_down.png></td></tr></table>","81","1","","","","","","","","","","","","","","","","","",""
"","html-keyboard-response",42,453369,"0.0-2.11-1.11",73,22,"f",1665680286941,750,"q","q","Only if I get the answer right","You win money","A fixed time limit",5,"Female","Accuracy is important as you will finish the task earlier if you get the selections right","The game is very fast and seemed to glitch sometimes.  I felt like when I fall behind the speed, it was very hard to catch back the tempo.  The speed should have been a bit sloer maybe, in order to let people concentrate.",2,2,3,0,1,0,0,1,0,0,0,2,0,0,0,0,0,1,0,1,0,1,3,1,1,1,0,1,2,1,1,1,2,0,1,2,1,0,0,0,1,2,2,0,0,2,3,1,1,2,2,2,4,3,3,2,1,2,4,3,2,1,3,"null","<div style=""font-size:75px;""><b>Correct</b></div>","null","","","","","","","","","","","","","","","","","","",""
"","html-keyboard-response",43,454374,"0.0-2.11-2.11",73,22,"f",1665680286941,750,"q","q","Only if I get the answer right","You win money","A fixed time limit",5,"Female","Accuracy is important as you will finish the task earlier if you get the selections right","The game is very fast and seemed to glitch sometimes.  I felt like when I fall behind the speed, it was very hard to catch back the tempo.  The speed should have been a bit sloer maybe, in order to let people concentrate.",2,2,3,0,1,0,0,1,0,0,0,2,0,0,0,0,0,1,0,1,0,1,3,1,1,1,0,1,2,1,1,1,2,0,1,2,1,0,0,0,1,2,2,0,0,2,3,1,1,2,2,2,4,3,3,2,1,2,4,3,2,1,3,"466.5","","q","","true","practice","11","down","up","0","q","1","0","1665680741611","","","","","","","",""
"","html-keyboard-response",44,454842,"0.0-2.12-0.12",73,22,"f",1665680286941,750,"q","q","Only if I get the answer right","You win money","A fixed time limit",5,"Female","Accuracy is important as you will finish the task earlier if you get the selections right","The game is very fast and seemed to glitch sometimes.  I felt like when I fall behind the speed, it was very hard to catch back the tempo.  The speed should have been a bit sloer maybe, in order to let people concentrate.",2,2,3,0,1,0,0,1,0,0,0,2,0,0,0,0,0,1,0,1,0,1,3,1,1,1,0,1,2,1,1,1,2,0,1,2,1,0,0,0,1,2,2,0,0,2,3,1,1,2,2,2,4,3,3,2,1,2,4,3,2,1,3,"467.1000000014901","<br><br><br><br><table><tr><td><img src=static/images/oddball_up.png></td><td><img src=static/images/oddball_up.png></td><td><img src=static/images/oddball_down.png></td></tr></table>","69","1","","","","","","","","","","","","","","","","","",""
"","html-keyboard-response",45,457344,"0.0-2.12-1.12",73,22,"f",1665680286941,750,"q","q","Only if I get the answer right","You win money","A fixed time limit",5,"Female","Accuracy is important as you will finish the task earlier if you get the selections right","The game is very fast and seemed to glitch sometimes.  I felt like when I fall behind the speed, it was very hard to catch back the tempo.  The speed should have been a bit sloer maybe, in order to let people concentrate.",2,2,3,0,1,0,0,1,0,0,0,2,0,0,0,0,0,1,0,1,0,1,3,1,1,1,0,1,2,1,1,1,2,0,1,2,1,0,0,0,1,2,2,0,0,2,3,1,1,2,2,2,4,3,3,2,1,2,4,3,2,1,3,"null","<div style=""font-size:75px;""><b>Correct</b></div>","null","","","","","","","","","","","","","","","","","","",""
"","html-keyboard-response",46,458351,"0.0-2.12-2.12",73,22,"f",1665680286941,750,"q","q","Only if I get the answer right","You win money","A fixed time limit",5,"Female","Accuracy is important as you will finish the task earlier if you get the selections right","The game is very fast and seemed to glitch sometimes.  I felt like when I fall behind the speed, it was very hard to catch back the tempo.  The speed should have been a bit sloer maybe, in order to let people concentrate.",2,2,3,0,1,0,0,1,0,0,0,2,0,0,0,0,0,1,0,1,0,1,3,1,1,1,0,1,2,1,1,1,2,0,1,2,1,0,0,0,1,2,2,0,0,2,3,1,1,2,2,2,4,3,3,2,1,2,4,3,2,1,3,"467.1000000014901","","e","","true","practice","12","up","down","2","e","1","0","1665680745588","","","","","","","",""
"","html-keyboard-response",47,458818,"0.0-2.13-0.13",73,22,"f",1665680286941,750,"q","q","Only if I get the answer right","You win money","A fixed time limit",5,"Female","Accuracy is important as you will finish the task earlier if you get the selections right","The game is very fast and seemed to glitch sometimes.  I felt like when I fall behind the speed, it was very hard to catch back the tempo.  The speed should have been a bit sloer maybe, in order to let people concentrate.",2,2,3,0,1,0,0,1,0,0,0,2,0,0,0,0,0,1,0,1,0,1,3,1,1,1,0,1,2,1,1,1,2,0,1,2,1,0,0,0,1,2,2,0,0,2,3,1,1,2,2,2,4,3,3,2,1,2,4,3,2,1,3,"466.80000000447035","<br><br><br><br><table><tr><td><img src=static/images/oddball_up.png></td><td><img src=static/images/oddball_up.png></td><td><img src=static/images/oddball_down.png></td></tr></table>","69","1","","","","","","","","","","","","","","","","","",""
"","html-keyboard-response",48,461334,"0.0-2.13-1.13",73,22,"f",1665680286941,750,"q","q","Only if I get the answer right","You win money","A fixed time limit",5,"Female","Accuracy is important as you will finish the task earlier if you get the selections right","The game is very fast and seemed to glitch sometimes.  I felt like when I fall behind the speed, it was very hard to catch back the tempo.  The speed should have been a bit sloer maybe, in order to let people concentrate.",2,2,3,0,1,0,0,1,0,0,0,2,0,0,0,0,0,1,0,1,0,1,3,1,1,1,0,1,2,1,1,1,2,0,1,2,1,0,0,0,1,2,2,0,0,2,3,1,1,2,2,2,4,3,3,2,1,2,4,3,2,1,3,"null","<div style=""font-size:75px;""><b>Correct</b></div>","null","","","","","","","","","","","","","","","","","","",""
"","html-keyboard-response",49,462349,"0.0-2.13-2.13",73,22,"f",1665680286941,750,"q","q","Only if I get the answer right","You win money","A fixed time limit",5,"Female","Accuracy is important as you will finish the task earlier if you get the selections right","The game is very fast and seemed to glitch sometimes.  I felt like when I fall behind the speed, it was very hard to catch back the tempo.  The speed should have been a bit sloer maybe, in order to let people concentrate.",2,2,3,0,1,0,0,1,0,0,0,2,0,0,0,0,0,1,0,1,0,1,3,1,1,1,0,1,2,1,1,1,2,0,1,2,1,0,0,0,1,2,2,0,0,2,3,1,1,2,2,2,4,3,3,2,1,2,4,3,2,1,3,"466.80000000447035","","e","","true","practice","13","up","down","2","e","1","0","1665680749586","","","","","","","",""
"","html-keyboard-response",50,462996,"0.0-2.14-0.14",73,22,"f",1665680286941,750,"q","q","Only if I get the answer right","You win money","A fixed time limit",5,"Female","Accuracy is important as you will finish the task earlier if you get the selections right","The game is very fast and seemed to glitch sometimes.  I felt like when I fall behind the speed, it was very hard to catch back the tempo.  The speed should have been a bit sloer maybe, in order to let people concentrate.",2,2,3,0,1,0,0,1,0,0,0,2,0,0,0,0,0,1,0,1,0,1,3,1,1,1,0,1,2,1,1,1,2,0,1,2,1,0,0,0,1,2,2,0,0,2,3,1,1,2,2,2,4,3,3,2,1,2,4,3,2,1,3,"645.8000000044703","<br><br><br><br><table><tr><td><img src=static/images/oddball_up.png></td><td><img src=static/images/oddball_down.png></td><td><img src=static/images/oddball_up.png></td></tr></table>","87","1","","","","","","","","","","","","","","","","","",""
"","html-keyboard-response",51,465502,"0.0-2.14-1.14",73,22,"f",1665680286941,750,"q","q","Only if I get the answer right","You win money","A fixed time limit",5,"Female","Accuracy is important as you will finish the task earlier if you get the selections right","The game is very fast and seemed to glitch sometimes.  I felt like when I fall behind the speed, it was very hard to catch back the tempo.  The speed should have been a bit sloer maybe, in order to let people concentrate.",2,2,3,0,1,0,0,1,0,0,0,2,0,0,0,0,0,1,0,1,0,1,3,1,1,1,0,1,2,1,1,1,2,0,1,2,1,0,0,0,1,2,2,0,0,2,3,1,1,2,2,2,4,3,3,2,1,2,4,3,2,1,3,"null","<div style=""font-size:75px;""><b>Correct</b></div>","null","","","","","","","","","","","","","","","","","","",""
"","html-keyboard-response",52,466506,"0.0-2.14-2.14",73,22,"f",1665680286941,750,"q","q","Only if I get the answer right","You win money","A fixed time limit",5,"Female","Accuracy is important as you will finish the task earlier if you get the selections right","The game is very fast and seemed to glitch sometimes.  I felt like when I fall behind the speed, it was very hard to catch back the tempo.  The speed should have been a bit sloer maybe, in order to let people concentrate.",2,2,3,0,1,0,0,1,0,0,0,2,0,0,0,0,0,1,0,1,0,1,3,1,1,1,0,1,2,1,1,1,2,0,1,2,1,0,0,0,1,2,2,0,0,2,3,1,1,2,2,2,4,3,3,2,1,2,4,3,2,1,3,"645.8000000044703","","w","","true","practice","14","up","down","1","w","1","0","1665680753743","","","","","","","",""
"","html-keyboard-response",53,466956,"0.0-2.15-0.15",73,22,"f",1665680286941,750,"q","q","Only if I get the answer right","You win money","A fixed time limit",5,"Female","Accuracy is important as you will finish the task earlier if you get the selections right","The game is very fast and seemed to glitch sometimes.  I felt like when I fall behind the speed, it was very hard to catch back the tempo.  The speed should have been a bit sloer maybe, in order to let people concentrate.",2,2,3,0,1,0,0,1,0,0,0,2,0,0,0,0,0,1,0,1,0,1,3,1,1,1,0,1,2,1,1,1,2,0,1,2,1,0,0,0,1,2,2,0,0,2,3,1,1,2,2,2,4,3,3,2,1,2,4,3,2,1,3,"449.59999999403954","<br><br><br><br><table><tr><td><img src=static/images/oddball_up.png></td><td><img src=static/images/oddball_up.png></td><td><img src=static/images/oddball_down.png></td></tr></table>","69","1","","","","","","","","","","","","","","","","","",""
"","html-keyboard-response",54,469459,"0.0-2.15-1.15",73,22,"f",1665680286941,750,"q","q","Only if I get the answer right","You win money","A fixed time limit",5,"Female","Accuracy is important as you will finish the task earlier if you get the selections right","The game is very fast and seemed to glitch sometimes.  I felt like when I fall behind the speed, it was very hard to catch back the tempo.  The speed should have been a bit sloer maybe, in order to let people concentrate.",2,2,3,0,1,0,0,1,0,0,0,2,0,0,0,0,0,1,0,1,0,1,3,1,1,1,0,1,2,1,1,1,2,0,1,2,1,0,0,0,1,2,2,0,0,2,3,1,1,2,2,2,4,3,3,2,1,2,4,3,2,1,3,"null","<div style=""font-size:75px;""><b>Correct</b></div>","null","","","","","","","","","","","","","","","","","","",""
"","html-keyboard-response",55,470466,"0.0-2.15-2.15",73,22,"f",1665680286941,750,"q","q","Only if I get the answer right","You win money","A fixed time limit",5,"Female","Accuracy is important as you will finish the task earlier if you get the selections right","The game is very fast and seemed to glitch sometimes.  I felt like when I fall behind the speed, it was very hard to catch back the tempo.  The speed should have been a bit sloer maybe, in order to let people concentrate.",2,2,3,0,1,0,0,1,0,0,0,2,0,0,0,0,0,1,0,1,0,1,3,1,1,1,0,1,2,1,1,1,2,0,1,2,1,0,0,0,1,2,2,0,0,2,3,1,1,2,2,2,4,3,3,2,1,2,4,3,2,1,3,"449.59999999403954","","e","","true","practice","15","up","down","2","e","1","0","1665680757703","","","","","","","",""
"","html-keyboard-response",56,471212,"0.0-2.16-0.16",73,22,"f",1665680286941,750,"q","q","Only if I get the answer right","You win money","A fixed time limit",5,"Female","Accuracy is important as you will finish the task earlier if you get the selections right","The game is very fast and seemed to glitch sometimes.  I felt like when I fall behind the speed, it was very hard to catch back the tempo.  The speed should have been a bit sloer maybe, in order to let people concentrate.",2,2,3,0,1,0,0,1,0,0,0,2,0,0,0,0,0,1,0,1,0,1,3,1,1,1,0,1,2,1,1,1,2,0,1,2,1,0,0,0,1,2,2,0,0,2,3,1,1,2,2,2,4,3,3,2,1,2,4,3,2,1,3,"745.5","<br><br><br><br><table><tr><td><img src=static/images/oddball_down.png></td><td><img src=static/images/oddball_up.png></td><td><img src=static/images/oddball_down.png></td></tr></table>","81","1","","","","","","","","","","","","","","","","","",""
"","html-keyboard-response",57,473717,"0.0-2.16-1.16",73,22,"f",1665680286941,750,"q","q","Only if I get the answer right","You win money","A fixed time limit",5,"Female","Accuracy is important as you will finish the task earlier if you get the selections right","The game is very fast and seemed to glitch sometimes.  I felt like when I fall behind the speed, it was very hard to catch back the tempo.  The speed should have been a bit sloer maybe, in order to let people concentrate.",2,2,3,0,1,0,0,1,0,0,0,2,0,0,0,0,0,1,0,1,0,1,3,1,1,1,0,1,2,1,1,1,2,0,1,2,1,0,0,0,1,2,2,0,0,2,3,1,1,2,2,2,4,3,3,2,1,2,4,3,2,1,3,"null","<div style=""font-size:75px;""><b>Incorrect</b></div><br><br><div font-size:50px;"">The middle shape was the odd one out, so you needed to press W!</div>","null","","","","","","","","","","","","","","","","","","",""
"","html-keyboard-response",58,474722,"0.0-2.16-2.16",73,22,"f",1665680286941,750,"q","q","Only if I get the answer right","You win money","A fixed time limit",5,"Female","Accuracy is important as you will finish the task earlier if you get the selections right","The game is very fast and seemed to glitch sometimes.  I felt like when I fall behind the speed, it was very hard to catch back the tempo.  The speed should have been a bit sloer maybe, in order to let people concentrate.",2,2,3,0,1,0,0,1,0,0,0,2,0,0,0,0,0,1,0,1,0,1,3,1,1,1,0,1,2,1,1,1,2,0,1,2,1,0,0,0,1,2,2,0,0,2,3,1,1,2,2,2,4,3,3,2,1,2,4,3,2,1,3,"745.5","","q","","true","practice","16","down","up","1","w","0","0","1665680761959","","","","","","","",""
"","html-keyboard-response",59,475220,"0.0-2.17-0.17",73,22,"f",1665680286941,750,"q","q","Only if I get the answer right","You win money","A fixed time limit",5,"Female","Accuracy is important as you will finish the task earlier if you get the selections right","The game is very fast and seemed to glitch sometimes.  I felt like when I fall behind the speed, it was very hard to catch back the tempo.  The speed should have been a bit sloer maybe, in order to let people concentrate.",2,2,3,0,1,0,0,1,0,0,0,2,0,0,0,0,0,1,0,1,0,1,3,1,1,1,0,1,2,1,1,1,2,0,1,2,1,0,0,0,1,2,2,0,0,2,3,1,1,2,2,2,4,3,3,2,1,2,4,3,2,1,3,"497.40000000596046","<br><br><br><br><table><tr><td><img src=static/images/oddball_down.png></td><td><img src=static/images/oddball_up.png></td><td><img src=static/images/oddball_down.png></td></tr></table>","87","1","","","","","","","","","","","","","","","","","",""
"","html-keyboard-response",60,477724,"0.0-2.17-1.17",73,22,"f",1665680286941,750,"q","q","Only if I get the answer right","You win money","A fixed time limit",5,"Female","Accuracy is important as you will finish the task earlier if you get the selections right","The game is very fast and seemed to glitch sometimes.  I felt like when I fall behind the speed, it was very hard to catch back the tempo.  The speed should have been a bit sloer maybe, in order to let people concentrate.",2,2,3,0,1,0,0,1,0,0,0,2,0,0,0,0,0,1,0,1,0,1,3,1,1,1,0,1,2,1,1,1,2,0,1,2,1,0,0,0,1,2,2,0,0,2,3,1,1,2,2,2,4,3,3,2,1,2,4,3,2,1,3,"null","<div style=""font-size:75px;""><b>Correct</b></div>","null","","","","","","","","","","","","","","","","","","",""
"","html-keyboard-response",61,478732,"0.0-2.17-2.17",73,22,"f",1665680286941,750,"q","q","Only if I get the answer right","You win money","A fixed time limit",5,"Female","Accuracy is important as you will finish the task earlier if you get the selections right","The game is very fast and seemed to glitch sometimes.  I felt like when I fall behind the speed, it was very hard to catch back the tempo.  The speed should have been a bit sloer maybe, in order to let people concentrate.",2,2,3,0,1,0,0,1,0,0,0,2,0,0,0,0,0,1,0,1,0,1,3,1,1,1,0,1,2,1,1,1,2,0,1,2,1,0,0,0,1,2,2,0,0,2,3,1,1,2,2,2,4,3,3,2,1,2,4,3,2,1,3,"497.40000000596046","","w","","true","practice","17","down","up","1","w","1","0","1665680765969","","","","","","","",""
"","html-keyboard-response",62,479332,"0.0-2.18-0.18",73,22,"f",1665680286941,750,"q","q","Only if I get the answer right","You win money","A fixed time limit",5,"Female","Accuracy is important as you will finish the task earlier if you get the selections right","The game is very fast and seemed to glitch sometimes.  I felt like when I fall behind the speed, it was very hard to catch back the tempo.  The speed should have been a bit sloer maybe, in order to let people concentrate.",2,2,3,0,1,0,0,1,0,0,0,2,0,0,0,0,0,1,0,1,0,1,3,1,1,1,0,1,2,1,1,1,2,0,1,2,1,0,0,0,1,2,2,0,0,2,3,1,1,2,2,2,4,3,3,2,1,2,4,3,2,1,3,"599.1000000014901","<br><br><br><br><table><tr><td><img src=static/images/oddball_down.png></td><td><img src=static/images/oddball_up.png></td><td><img src=static/images/oddball_up.png></td></tr></table>","81","1","","","","","","","","","","","","","","","","","",""
"","html-keyboard-response",63,481848,"0.0-2.18-1.18",73,22,"f",1665680286941,750,"q","q","Only if I get the answer right","You win money","A fixed time limit",5,"Female","Accuracy is important as you will finish the task earlier if you get the selections right","The game is very fast and seemed to glitch sometimes.  I felt like when I fall behind the speed, it was very hard to catch back the tempo.  The speed should have been a bit sloer maybe, in order to let people concentrate.",2,2,3,0,1,0,0,1,0,0,0,2,0,0,0,0,0,1,0,1,0,1,3,1,1,1,0,1,2,1,1,1,2,0,1,2,1,0,0,0,1,2,2,0,0,2,3,1,1,2,2,2,4,3,3,2,1,2,4,3,2,1,3,"null","<div style=""font-size:75px;""><b>Correct</b></div>","null","","","","","","","","","","","","","","","","","","",""
"","html-keyboard-response",64,482853,"0.0-2.18-2.18",73,22,"f",1665680286941,750,"q","q","Only if I get the answer right","You win money","A fixed time limit",5,"Female","Accuracy is important as you will finish the task earlier if you get the selections right","The game is very fast and seemed to glitch sometimes.  I felt like when I fall behind the speed, it was very hard to catch back the tempo.  The speed should have been a bit sloer maybe, in order to let people concentrate.",2,2,3,0,1,0,0,1,0,0,0,2,0,0,0,0,0,1,0,1,0,1,3,1,1,1,0,1,2,1,1,1,2,0,1,2,1,0,0,0,1,2,2,0,0,2,3,1,1,2,2,2,4,3,3,2,1,2,4,3,2,1,3,"599.1000000014901","","q","","true","practice","18","up","down","0","q","1","0","1665680770090","","","","","","","",""
"","html-keyboard-response",65,483916,"0.0-2.19-0.19",73,22,"f",1665680286941,750,"q","q","Only if I get the answer right","You win money","A fixed time limit",5,"Female","Accuracy is important as you will finish the task earlier if you get the selections right","The game is very fast and seemed to glitch sometimes.  I felt like when I fall behind the speed, it was very hard to catch back the tempo.  The speed should have been a bit sloer maybe, in order to let people concentrate.",2,2,3,0,1,0,0,1,0,0,0,2,0,0,0,0,0,1,0,1,0,1,3,1,1,1,0,1,2,1,1,1,2,0,1,2,1,0,0,0,1,2,2,0,0,2,3,1,1,2,2,2,4,3,3,2,1,2,4,3,2,1,3,"1062.6999999955297","<br><br><br><br><table><tr><td><img src=static/images/oddball_up.png></td><td><img src=static/images/oddball_down.png></td><td><img src=static/images/oddball_up.png></td></tr></table>","87","1","","","","","","","","","","","","","","","","","",""
"","html-keyboard-response",66,486424,"0.0-2.19-1.19",73,22,"f",1665680286941,750,"q","q","Only if I get the answer right","You win money","A fixed time limit",5,"Female","Accuracy is important as you will finish the task earlier if you get the selections right","The game is very fast and seemed to glitch sometimes.  I felt like when I fall behind the speed, it was very hard to catch back the tempo.  The speed should have been a bit sloer maybe, in order to let people concentrate.",2,2,3,0,1,0,0,1,0,0,0,2,0,0,0,0,0,1,0,1,0,1,3,1,1,1,0,1,2,1,1,1,2,0,1,2,1,0,0,0,1,2,2,0,0,2,3,1,1,2,2,2,4,3,3,2,1,2,4,3,2,1,3,"null","<div style=""font-size:75px;""><b>Correct</b></div>","null","","","","","","","","","","","","","","","","","","",""
"","html-keyboard-response",67,487430,"0.0-2.19-2.19",73,22,"f",1665680286941,750,"q","q","Only if I get the answer right","You win money","A fixed time limit",5,"Female","Accuracy is important as you will finish the task earlier if you get the selections right","The game is very fast and seemed to glitch sometimes.  I felt like when I fall behind the speed, it was very hard to catch back the tempo.  The speed should have been a bit sloer maybe, in order to let people concentrate.",2,2,3,0,1,0,0,1,0,0,0,2,0,0,0,0,0,1,0,1,0,1,3,1,1,1,0,1,2,1,1,1,2,0,1,2,1,0,0,0,1,2,2,0,0,2,3,1,1,2,2,2,4,3,3,2,1,2,4,3,2,1,3,"1062.6999999955297","","w","","true","practice","19","up","down","1","w","1","0","1665680774667","","","","","","","",""
"","image-keyboard-response",68,493404,"0.0-3.0-0.0",73,22,"f",1665680286941,750,"q","q","Only if I get the answer right","You win money","A fixed time limit",5,"Female","Accuracy is important as you will finish the task earlier if you get the selections right","The game is very fast and seemed to glitch sometimes.  I felt like when I fall behind the speed, it was very hard to catch back the tempo.  The speed should have been a bit sloer maybe, in order to let people concentrate.",2,2,3,0,1,0,0,1,0,0,0,2,0,0,0,0,0,1,0,1,0,1,3,1,1,1,0,1,2,1,1,1,2,0,1,2,1,0,0,0,1,2,2,0,0,2,3,1,1,2,2,2,4,3,3,2,1,2,4,3,2,1,3,"5972.60000000149","static/images/instructions/Slide8.png","39","","","","","","","","","","","","","","","","","","",""
"","image-keyboard-response",69,511692,"0.0-3.1-0.1",73,22,"f",1665680286941,750,"q","q","Only if I get the answer right","You win money","A fixed time limit",5,"Female","Accuracy is important as you will finish the task earlier if you get the selections right","The game is very fast and seemed to glitch sometimes.  I felt like when I fall behind the speed, it was very hard to catch back the tempo.  The speed should have been a bit sloer maybe, in order to let people concentrate.",2,2,3,0,1,0,0,1,0,0,0,2,0,0,0,0,0,1,0,1,0,1,3,1,1,1,0,1,2,1,1,1,2,0,1,2,1,0,0,0,1,2,2,0,0,2,3,1,1,2,2,2,4,3,3,2,1,2,4,3,2,1,3,"18287.29999999702","static/images/instructions/Slide9.png","39","","","","","","","","","","","","","","","","","","",""
"","image-keyboard-response",70,527523,"0.0-3.2-0.2",73,22,"f",1665680286941,750,"q","q","Only if I get the answer right","You win money","A fixed time limit",5,"Female","Accuracy is important as you will finish the task earlier if you get the selections right","The game is very fast and seemed to glitch sometimes.  I felt like when I fall behind the speed, it was very hard to catch back the tempo.  The speed should have been a bit sloer maybe, in order to let people concentrate.",2,2,3,0,1,0,0,1,0,0,0,2,0,0,0,0,0,1,0,1,0,1,3,1,1,1,0,1,2,1,1,1,2,0,1,2,1,0,0,0,1,2,2,0,0,2,3,1,1,2,2,2,4,3,3,2,1,2,4,3,2,1,3,"15839","static/images/instructions/Slide10.png","39","","","","","","","","","","","","","","","","","","",""
"","image-keyboard-response",71,540299,"0.0-3.3-0.3",73,22,"f",1665680286941,750,"q","q","Only if I get the answer right","You win money","A fixed time limit",5,"Female","Accuracy is important as you will finish the task earlier if you get the selections right","The game is very fast and seemed to glitch sometimes.  I felt like when I fall behind the speed, it was very hard to catch back the tempo.  The speed should have been a bit sloer maybe, in order to let people concentrate.",2,2,3,0,1,0,0,1,0,0,0,2,0,0,0,0,0,1,0,1,0,1,3,1,1,1,0,1,2,1,1,1,2,0,1,2,1,0,0,0,1,2,2,0,0,2,3,1,1,2,2,2,4,3,3,2,1,2,4,3,2,1,3,"12775.80000000447","static/images/instructions/Slide11.png","39","","","","","","","","","","","","","","","","","","",""
"","image-keyboard-response",72,549659,"0.0-3.4-0.4",73,22,"f",1665680286941,750,"q","q","Only if I get the answer right","You win money","A fixed time limit",5,"Female","Accuracy is important as you will finish the task earlier if you get the selections right","The game is very fast and seemed to glitch sometimes.  I felt like when I fall behind the speed, it was very hard to catch back the tempo.  The speed should have been a bit sloer maybe, in order to let people concentrate.",2,2,3,0,1,0,0,1,0,0,0,2,0,0,0,0,0,1,0,1,0,1,3,1,1,1,0,1,2,1,1,1,2,0,1,2,1,0,0,0,1,2,2,0,0,2,3,1,1,2,2,2,4,3,3,2,1,2,4,3,2,1,3,"9359.20000000298","static/images/instructions/Slide12.png","39","","","","","","","","","","","","","","","","","","",""
"","image-keyboard-response",73,557835,"0.0-3.5-0.5",73,22,"f",1665680286941,750,"q","q","Only if I get the answer right","You win money","A fixed time limit",5,"Female","Accuracy is important as you will finish the task earlier if you get the selections right","The game is very fast and seemed to glitch sometimes.  I felt like when I fall behind the speed, it was very hard to catch back the tempo.  The speed should have been a bit sloer maybe, in order to let people concentrate.",2,2,3,0,1,0,0,1,0,0,0,2,0,0,0,0,0,1,0,1,0,1,3,1,1,1,0,1,2,1,1,1,2,0,1,2,1,0,0,0,1,2,2,0,0,2,3,1,1,2,2,2,4,3,3,2,1,2,4,3,2,1,3,"8175.39999999851","static/images/instructions/Slide13.png","39","","","","","","","","","","","","","","","","","","",""
"","image-keyboard-response",74,573083,"0.0-3.6-0.6",73,22,"f",1665680286941,750,"q","q","Only if I get the answer right","You win money","A fixed time limit",5,"Female","Accuracy is important as you will finish the task earlier if you get the selections right","The game is very fast and seemed to glitch sometimes.  I felt like when I fall behind the speed, it was very hard to catch back the tempo.  The speed should have been a bit sloer maybe, in order to let people concentrate.",2,2,3,0,1,0,0,1,0,0,0,2,0,0,0,0,0,1,0,1,0,1,3,1,1,1,0,1,2,1,1,1,2,0,1,2,1,0,0,0,1,2,2,0,0,2,3,1,1,2,2,2,4,3,3,2,1,2,4,3,2,1,3,"15247.20000000298","static/images/instructions/Slide14.png","39","","","","","","","","","","","","","","","","","","",""
"","image-keyboard-response",75,585907,"0.0-3.7-0.7",73,22,"f",1665680286941,750,"q","q","Only if I get the answer right","You win money","A fixed time limit",5,"Female","Accuracy is important as you will finish the task earlier if you get the selections right","The game is very fast and seemed to glitch sometimes.  I felt like when I fall behind the speed, it was very hard to catch back the tempo.  The speed should have been a bit sloer maybe, in order to let people concentrate.",2,2,3,0,1,0,0,1,0,0,0,2,0,0,0,0,0,1,0,1,0,1,3,1,1,1,0,1,2,1,1,1,2,0,1,2,1,0,0,0,1,2,2,0,0,2,3,1,1,2,2,2,4,3,3,2,1,2,4,3,2,1,3,"12823.5","static/images/instructions/Slide15.png","39","","","","","","","","","","","","","","","","","","",""
"","image-keyboard-response",76,610497,"0.0-3.8-0.8",73,22,"f",1665680286941,750,"q","q","Only if I get the answer right","You win money","A fixed time limit",5,"Female","Accuracy is important as you will finish the task earlier if you get the selections right","The game is very fast and seemed to glitch sometimes.  I felt like when I fall behind the speed, it was very hard to catch back the tempo.  The speed should have been a bit sloer maybe, in order to let people concentrate.",2,2,3,0,1,0,0,1,0,0,0,2,0,0,0,0,0,1,0,1,0,1,3,1,1,1,0,1,2,1,1,1,2,0,1,2,1,0,0,0,1,2,2,0,0,2,3,1,1,2,2,2,4,3,3,2,1,2,4,3,2,1,3,"24583","static/images/instructions/Slide16.png","39","","","","","","","","","","","","","","","","","","",""
"","image-keyboard-response",77,616250,"0.0-3.9-0.9",73,22,"f",1665680286941,750,"q","q","Only if I get the answer right","You win money","A fixed time limit",5,"Female","Accuracy is important as you will finish the task earlier if you get the selections right","The game is very fast and seemed to glitch sometimes.  I felt like when I fall behind the speed, it was very hard to catch back the tempo.  The speed should have been a bit sloer maybe, in order to let people concentrate.",2,2,3,0,1,0,0,1,0,0,0,2,0,0,0,0,0,1,0,1,0,1,3,1,1,1,0,1,2,1,1,1,2,0,1,2,1,0,0,0,1,2,2,0,0,2,3,1,1,2,2,2,4,3,3,2,1,2,4,3,2,1,3,"5751.5999999940395","static/images/instructions/Slide17.png","39","","","","","","","","","","","","","","","","","","",""
"","survey-multi-choice",78,656091,"0.0-4.0",73,22,"f",1665680286941,750,"q","q","Only if I get the answer right","You win money","A fixed time limit",5,"Female","Accuracy is important as you will finish the task earlier if you get the selections right","The game is very fast and seemed to glitch sometimes.  I felt like when I fall behind the speed, it was very hard to catch back the tempo.  The speed should have been a bit sloer maybe, in order to let people concentrate.",2,2,3,0,1,0,0,1,0,0,0,2,0,0,0,0,0,1,0,1,0,1,3,1,1,1,0,1,2,1,1,1,2,0,1,2,1,0,0,0,1,2,2,0,0,2,3,1,1,2,2,2,4,3,3,2,1,2,4,3,2,1,3,"39839","","","","","","","","","","","","","","{""q1"":""q"",""q2"":""q"",""q3"":""Only if I get the answer right"",""q4"":""You win money"",""q5"":""A fixed time limit""}","[2,1,4,0,3]","","","","","",""
"","image-keyboard-response",79,685126,"0.0-5.0-0.0",73,22,"f",1665680286941,750,"q","q","Only if I get the answer right","You win money","A fixed time limit",5,"Female","Accuracy is important as you will finish the task earlier if you get the selections right","The game is very fast and seemed to glitch sometimes.  I felt like when I fall behind the speed, it was very hard to catch back the tempo.  The speed should have been a bit sloer maybe, in order to let people concentrate.",2,2,3,0,1,0,0,1,0,0,0,2,0,0,0,0,0,1,0,1,0,1,3,1,1,1,0,1,2,1,1,1,2,0,1,2,1,0,0,0,1,2,2,0,0,2,3,1,1,2,2,2,4,3,3,2,1,2,4,3,2,1,3,"29038.19999999553","static/images/instructions/Slide18.png","39","","","","","","","","","","","","","","","","","","",""
"","html-keyboard-response",80,686130,"0.0-6.0-0.0-0.0",73,22,"f",1665680286941,750,"q","q","Only if I get the answer right","You win money","A fixed time limit",5,"Female","Accuracy is important as you will finish the task earlier if you get the selections right","The game is very fast and seemed to glitch sometimes.  I felt like when I fall behind the speed, it was very hard to catch back the tempo.  The speed should have been a bit sloer maybe, in order to let people concentrate.",2,2,3,0,1,0,0,1,0,0,0,2,0,0,0,0,0,1,0,1,0,1,3,1,1,1,0,1,2,1,1,1,2,0,1,2,1,0,0,0,1,2,2,0,0,2,3,1,1,2,2,2,4,3,3,2,1,2,4,3,2,1,3,"null","<div style=""font-size:75px;"">3</div>","null","","","","","","","","","","","","","","","","","","",""
"","html-keyboard-response",81,687133,"0.0-6.0-0.1-0.1",73,22,"f",1665680286941,750,"q","q","Only if I get the answer right","You win money","A fixed time limit",5,"Female","Accuracy is important as you will finish the task earlier if you get the selections right","The game is very fast and seemed to glitch sometimes.  I felt like when I fall behind the speed, it was very hard to catch back the tempo.  The speed should have been a bit sloer maybe, in order to let people concentrate.",2,2,3,0,1,0,0,1,0,0,0,2,0,0,0,0,0,1,0,1,0,1,3,1,1,1,0,1,2,1,1,1,2,0,1,2,1,0,0,0,1,2,2,0,0,2,3,1,1,2,2,2,4,3,3,2,1,2,4,3,2,1,3,"null","<div style=""font-size:75px;"">2</div>","null","","","","","","","","","","","","","","","","","","",""
"","html-keyboard-response",82,688151,"0.0-6.0-0.2-0.2",73,22,"f",1665680286941,750,"q","q","Only if I get the answer right","You win money","A fixed time limit",5,"Female","Accuracy is important as you will finish the task earlier if you get the selections right","The game is very fast and seemed to glitch sometimes.  I felt like when I fall behind the speed, it was very hard to catch back the tempo.  The speed should have been a bit sloer maybe, in order to let people concentrate.",2,2,3,0,1,0,0,1,0,0,0,2,0,0,0,0,0,1,0,1,0,1,3,1,1,1,0,1,2,1,1,1,2,0,1,2,1,0,0,0,1,2,2,0,0,2,3,1,1,2,2,2,4,3,3,2,1,2,4,3,2,1,3,"null","<div style=""font-size:75px;"">1</div>","null","","","","","","","","","","","","","","","","","","",""
"","html-keyboard-response",83,688750,"0.0-6.0-1.0-0.0",73,22,"f",1665680286941,750,"q","q","Only if I get the answer right","You win money","A fixed time limit",5,"Female","Accuracy is important as you will finish the task earlier if you get the selections right","The game is very fast and seemed to glitch sometimes.  I felt like when I fall behind the speed, it was very hard to catch back the tempo.  The speed should have been a bit sloer maybe, in order to let people concentrate.",2,2,3,0,1,0,0,1,0,0,0,2,0,0,0,0,0,1,0,1,0,1,3,1,1,1,0,1,2,1,1,1,2,0,1,2,1,0,0,0,1,2,2,0,0,2,3,1,1,2,2,2,4,3,3,2,1,2,4,3,2,1,3,"597.7000000029802","<div style=""color:green; font-size:75px;""><b>$0.20</b></div><br><br><br><br><table><tr><td><img src=static/images/oddball_up.png></td><td><img src=static/images/oddball_up.png></td><td><img src=static/images/oddball_down.png></td></tr></table>","69","1","","","","","","","","","","","","","","","","","",""
"","html-keyboard-response",84,688835.015407414,"0.0-6.0-1.0-1.0",73,22,"f",1665680286941,750,"q","q","Only if I get the answer right","You win money","A fixed time limit",5,"Female","Accuracy is important as you will finish the task earlier if you get the selections right","The game is very fast and seemed to glitch sometimes.  I felt like when I fall behind the speed, it was very hard to catch back the tempo.  The speed should have been a bit sloer maybe, in order to let people concentrate.",2,2,3,0,1,0,0,1,0,0,0,2,0,0,0,0,0,1,0,1,0,1,3,1,1,1,0,1,2,1,1,1,2,0,1,2,1,0,0,0,1,2,2,0,0,2,3,1,1,2,2,2,4,3,3,2,1,2,4,3,2,1,3,"570.715407417372","","e","","true","0","0","up","down","2","e","1","0","1665680976072.02","","","false","60","0","0","0.2","null"
"","html-keyboard-response",85,689477,"0.0-6.0-1.1-0.1",73,22,"f",1665680286941,750,"q","q","Only if I get the answer right","You win money","A fixed time limit",5,"Female","Accuracy is important as you will finish the task earlier if you get the selections right","The game is very fast and seemed to glitch sometimes.  I felt like when I fall behind the speed, it was very hard to catch back the tempo.  The speed should have been a bit sloer maybe, in order to let people concentrate.",2,2,3,0,1,0,0,1,0,0,0,2,0,0,0,0,0,1,0,1,0,1,3,1,1,1,0,1,2,1,1,1,2,0,1,2,1,0,0,0,1,2,2,0,0,2,3,1,1,2,2,2,4,3,3,2,1,2,4,3,2,1,3,"615","<div style=""color:green; font-size:75px;""><b>$0.20</b></div><br><br><br><br><table><tr><td><img src=static/images/oddball_down.png></td><td><img src=static/images/oddball_up.png></td><td><img src=static/images/oddball_up.png></td></tr></table>","81","1","","","","","","","","","","","","","","","","","",""
"","html-keyboard-response",86,689613.690296966,"0.0-6.0-1.1-1.1",73,22,"f",1665680286941,750,"q","q","Only if I get the answer right","You win money","A fixed time limit",5,"Female","Accuracy is important as you will finish the task earlier if you get the selections right","The game is very fast and seemed to glitch sometimes.  I felt like when I fall behind the speed, it was very hard to catch back the tempo.  The speed should have been a bit sloer maybe, in order to let people concentrate.",2,2,3,0,1,0,0,1,0,0,0,2,0,0,0,0,0,1,0,1,0,1,3,1,1,1,0,1,2,1,1,1,2,0,1,2,1,0,0,0,1,2,2,0,0,2,3,1,1,2,2,2,4,3,3,2,1,2,4,3,2,1,3,"647.69","","q","","true","0","1","up","down","0","q","1","0","1665680976850.69","","","false","60","1","0.0166666666666667","0.2","false"
"","html-keyboard-response",87,690150,"0.0-6.0-1.2-0.2",73,22,"f",1665680286941,750,"q","q","Only if I get the answer right","You win money","A fixed time limit",5,"Female","Accuracy is important as you will finish the task earlier if you get the selections right","The game is very fast and seemed to glitch sometimes.  I felt like when I fall behind the speed, it was very hard to catch back the tempo.  The speed should have been a bit sloer maybe, in order to let people concentrate.",2,2,3,0,1,0,0,1,0,0,0,2,0,0,0,0,0,1,0,1,0,1,3,1,1,1,0,1,2,1,1,1,2,0,1,2,1,0,0,0,1,2,2,0,0,2,3,1,1,2,2,2,4,3,3,2,1,2,4,3,2,1,3,"568.2000000029802","<div style=""color:green; font-size:75px;""><b>$0.20</b></div><br><br><br><br><table><tr><td><img src=static/images/oddball_up.png></td><td><img src=static/images/oddball_up.png></td><td><img src=static/images/oddball_down.png></td></tr></table>","69","1","","","","","","","","","","","","","","","","","",""
"","html-keyboard-response",88,690355.718108144,"0.0-6.0-1.2-1.2",73,22,"f",1665680286941,750,"q","q","Only if I get the answer right","You win money","A fixed time limit",5,"Female","Accuracy is important as you will finish the task earlier if you get the selections right","The game is very fast and seemed to glitch sometimes.  I felt like when I fall behind the speed, it was very hard to catch back the tempo.  The speed should have been a bit sloer maybe, in order to let people concentrate.",2,2,3,0,1,0,0,1,0,0,0,2,0,0,0,0,0,1,0,1,0,1,3,1,1,1,0,1,2,1,1,1,2,0,1,2,1,0,0,0,1,2,2,0,0,2,3,1,1,2,2,2,4,3,3,2,1,2,4,3,2,1,3,"659.918108147463","","e","","true","0","2","up","down","2","e","1","0","1665680977592.72","","","false","60","2","0.0333333333333333","0.2","false"
"","html-keyboard-response",89,690813,"0.0-6.0-1.3-0.3",73,22,"f",1665680286941,750,"q","q","Only if I get the answer right","You win money","A fixed time limit",5,"Female","Accuracy is important as you will finish the task earlier if you get the selections right","The game is very fast and seemed to glitch sometimes.  I felt like when I fall behind the speed, it was very hard to catch back the tempo.  The speed should have been a bit sloer maybe, in order to let people concentrate.",2,2,3,0,1,0,0,1,0,0,0,2,0,0,0,0,0,1,0,1,0,1,3,1,1,1,0,1,2,1,1,1,2,0,1,2,1,0,0,0,1,2,2,0,0,2,3,1,1,2,2,2,4,3,3,2,1,2,4,3,2,1,3,"549.1000000014901","<div style=""color:green; font-size:75px;""><b>$0.20</b></div><br><br><br><br><table><tr><td><img src=static/images/oddball_up.png></td><td><img src=static/images/oddball_down.png></td><td><img src=static/images/oddball_up.png></td></tr></table>","87","1","","","","","","","","","","","","","","","","","",""
"","html-keyboard-response",90,690900.910444875,"0.0-6.0-1.3-1.3",73,22,"f",1665680286941,750,"q","q","Only if I get the answer right","You win money","A fixed time limit",5,"Female","Accuracy is important as you will finish the task earlier if you get the selections right","The game is very fast and seemed to glitch sometimes.  I felt like when I fall behind the speed, it was very hard to catch back the tempo.  The speed should have been a bit sloer maybe, in order to let people concentrate.",2,2,3,0,1,0,0,1,0,0,0,2,0,0,0,0,0,1,0,1,0,1,3,1,1,1,0,1,2,1,1,1,2,0,1,2,1,0,0,0,1,2,2,0,0,2,3,1,1,2,2,2,4,3,3,2,1,2,4,3,2,1,3,"533.010444876775","","w","","true","0","3","up","down","1","w","1","0","1665680978137.91","","","false","60","3","0.05","0.2","false"
"","html-keyboard-response",91,691429,"0.0-6.0-1.4-0.4",73,22,"f",1665680286941,750,"q","q","Only if I get the answer right","You win money","A fixed time limit",5,"Female","Accuracy is important as you will finish the task earlier if you get the selections right","The game is very fast and seemed to glitch sometimes.  I felt like when I fall behind the speed, it was very hard to catch back the tempo.  The speed should have been a bit sloer maybe, in order to let people concentrate.",2,2,3,0,1,0,0,1,0,0,0,2,0,0,0,0,0,1,0,1,0,1,3,1,1,1,0,1,2,1,1,1,2,0,1,2,1,0,0,0,1,2,2,0,0,2,3,1,1,2,2,2,4,3,3,2,1,2,4,3,2,1,3,"512","<div style=""color:green; font-size:75px;""><b>$0.20</b></div><br><br><br><br><table><tr><td><img src=static/images/oddball_up.png></td><td><img src=static/images/oddball_down.png></td><td><img src=static/images/oddball_up.png></td></tr></table>","87","1","","","","","","","","","","","","","","","","","",""
"","html-keyboard-response",92,691518.76056125,"0.0-6.0-1.4-1.4",73,22,"f",1665680286941,750,"q","q","Only if I get the answer right","You win money","A fixed time limit",5,"Female","Accuracy is important as you will finish the task earlier if you get the selections right","The game is very fast and seemed to glitch sometimes.  I felt like when I fall behind the speed, it was very hard to catch back the tempo.  The speed should have been a bit sloer maybe, in order to let people concentrate.",2,2,3,0,1,0,0,1,0,0,0,2,0,0,0,0,0,1,0,1,0,1,3,1,1,1,0,1,2,1,1,1,2,0,1,2,1,0,0,0,1,2,2,0,0,2,3,1,1,2,2,2,4,3,3,2,1,2,4,3,2,1,3,"496.761","","w","","true","0","4","up","down","1","w","1","0","1665680978756.76","","","false","60","4","0.0666666666666667","0.2","false"
"","html-keyboard-response",93,692181,"0.0-6.0-1.5-0.5",73,22,"f",1665680286941,750,"q","q","Only if I get the answer right","You win money","A fixed time limit",5,"Female","Accuracy is important as you will finish the task earlier if you get the selections right","The game is very fast and seemed to glitch sometimes.  I felt like when I fall behind the speed, it was very hard to catch back the tempo.  The speed should have been a bit sloer maybe, in order to let people concentrate.",2,2,3,0,1,0,0,1,0,0,0,2,0,0,0,0,0,1,0,1,0,1,3,1,1,1,0,1,2,1,1,1,2,0,1,2,1,0,0,0,1,2,2,0,0,2,3,1,1,2,2,2,4,3,3,2,1,2,4,3,2,1,3,"646.1000000014901","<div style=""color:green; font-size:75px;""><b>$0.20</b></div><br><br><br><br><table><tr><td><img src=static/images/oddball_down.png></td><td><img src=static/images/oddball_up.png></td><td><img src=static/images/oddball_down.png></td></tr></table>","87","1","","","","","","","","","","","","","","","","","",""
"","html-keyboard-response",94,692316.986947143,"0.0-6.0-1.5-1.5",73,22,"f",1665680286941,750,"q","q","Only if I get the answer right","You win money","A fixed time limit",5,"Female","Accuracy is important as you will finish the task earlier if you get the selections right","The game is very fast and seemed to glitch sometimes.  I felt like when I fall behind the speed, it was very hard to catch back the tempo.  The speed should have been a bit sloer maybe, in order to let people concentrate.",2,2,3,0,1,0,0,1,0,0,0,2,0,0,0,0,0,1,0,1,0,1,3,1,1,1,0,1,2,1,1,1,2,0,1,2,1,0,0,0,1,2,2,0,0,2,3,1,1,2,2,2,4,3,3,2,1,2,4,3,2,1,3,"677.086947144009","","w","","true","0","5","down","up","1","w","1","0","1665680979553.99","","","false","60","5","0.0833333333333333","0.2","false"
"","html-keyboard-response",95,692933,"0.0-6.0-1.6-0.6",73,22,"f",1665680286941,750,"q","q","Only if I get the answer right","You win money","A fixed time limit",5,"Female","Accuracy is important as you will finish the task earlier if you get the selections right","The game is very fast and seemed to glitch sometimes.  I felt like when I fall behind the speed, it was very hard to catch back the tempo.  The speed should have been a bit sloer maybe, in order to let people concentrate.",2,2,3,0,1,0,0,1,0,0,0,2,0,0,0,0,0,1,0,1,0,1,3,1,1,1,0,1,2,1,1,1,2,0,1,2,1,0,0,0,1,2,2,0,0,2,3,1,1,2,2,2,4,3,3,2,1,2,4,3,2,1,3,"646.1000000014901","<div style=""color:green; font-size:75px;""><b>$0.20</b></div><br><br><br><br><table><tr><td><img src=static/images/oddball_up.png></td><td><img src=static/images/oddball_up.png></td><td><img src=static/images/oddball_down.png></td></tr></table>","69","1","","","","","","","","","","","","","","","","","",""
"","html-keyboard-response",96,692992.14526534,"0.0-6.0-1.6-1.6",73,22,"f",1665680286941,750,"q","q","Only if I get the answer right","You win money","A fixed time limit",5,"Female","Accuracy is important as you will finish the task earlier if you get the selections right","The game is very fast and seemed to glitch sometimes.  I felt like when I fall behind the speed, it was very hard to catch back the tempo.  The speed should have been a bit sloer maybe, in order to let people concentrate.",2,2,3,0,1,0,0,1,0,0,0,2,0,0,0,0,0,1,0,1,0,1,3,1,1,1,0,1,2,1,1,1,2,0,1,2,1,0,0,0,1,2,2,0,0,2,3,1,1,2,2,2,4,3,3,2,1,2,4,3,2,1,3,"601.245265341934","","e","","true","0","6","up","down","2","e","1","0","1665680980229.15","","","false","60","6","0.1","0.2","false"
"","html-keyboard-response",97,693793,"0.0-6.0-1.7-0.7",73,22,"f",1665680286941,750,"q","q","Only if I get the answer right","You win money","A fixed time limit",5,"Female","Accuracy is important as you will finish the task earlier if you get the selections right","The game is very fast and seemed to glitch sometimes.  I felt like when I fall behind the speed, it was very hard to catch back the tempo.  The speed should have been a bit sloer maybe, in order to let people concentrate.",2,2,3,0,1,0,0,1,0,0,0,2,0,0,0,0,0,1,0,1,0,1,3,1,1,1,0,1,2,1,1,1,2,0,1,2,1,0,0,0,1,2,2,0,0,2,3,1,1,2,2,2,4,3,3,2,1,2,4,3,2,1,3,"null","<div style=""color:green; font-size:75px;""><b>$0.20</b></div><br><br><br><br><table><tr><td><img src=static/images/oddball_down.png></td><td><img src=static/images/oddball_up.png></td><td><img src=static/images/oddball_down.png></td></tr></table>","null","","","","","","","","","","","","","","","","","","",""
"","html-keyboard-response",98,693910,"0.0-6.0-1.7-1.7",73,22,"f",1665680286941,750,"q","q","Only if I get the answer right","You win money","A fixed time limit",5,"Female","Accuracy is important as you will finish the task earlier if you get the selections right","The game is very fast and seemed to glitch sometimes.  I felt like when I fall behind the speed, it was very hard to catch back the tempo.  The speed should have been a bit sloer maybe, in order to let people concentrate.",2,2,3,0,1,0,0,1,0,0,0,2,0,0,0,0,0,1,0,1,0,1,3,1,1,1,0,1,2,1,1,1,2,0,1,2,1,0,0,0,1,2,2,0,0,2,3,1,1,2,2,2,4,3,3,2,1,2,4,3,2,1,3,"null","","null","","true","0","7","down","up","1","w","0","0","1665680981147","","","false","60","7","0.116666666666667","0.2","true"
"","html-keyboard-response",99,694629,"0.0-6.0-1.8-0.8",73,22,"f",1665680286941,750,"q","q","Only if I get the answer right","You win money","A fixed time limit",5,"Female","Accuracy is important as you will finish the task earlier if you get the selections right","The game is very fast and seemed to glitch sometimes.  I felt like when I fall behind the speed, it was very hard to catch back the tempo.  The speed should have been a bit sloer maybe, in order to let people concentrate.",2,2,3,0,1,0,0,1,0,0,0,2,0,0,0,0,0,1,0,1,0,1,3,1,1,1,0,1,2,1,1,1,2,0,1,2,1,0,0,0,1,2,2,0,0,2,3,1,1,2,2,2,4,3,3,2,1,2,4,3,2,1,3,"718.6000000014901","<div style=""color:green; font-size:75px;""><b>$0.20</b></div><br><br><br><br><table><tr><td><img src=static/images/oddball_down.png></td><td><img src=static/images/oddball_up.png></td><td><img src=static/images/oddball_up.png></td></tr></table>","81","1","","","","","","","","","","","","","","","","","",""
"","html-keyboard-response",100,694748.727547345,"0.0-6.0-1.8-1.8",73,22,"f",1665680286941,750,"q","q","Only if I get the answer right","You win money","A fixed time limit",5,"Female","Accuracy is important as you will finish the task earlier if you get the selections right","The game is very fast and seemed to glitch sometimes.  I felt like when I fall behind the speed, it was very hard to catch back the tempo.  The speed should have been a bit sloer maybe, in order to let people concentrate.",2,2,3,0,1,0,0,1,0,0,0,2,0,0,0,0,0,1,0,1,0,1,3,1,1,1,0,1,2,1,1,1,2,0,1,2,1,0,0,0,1,2,2,0,0,2,3,1,1,2,2,2,4,3,3,2,1,2,4,3,2,1,3,"725.327547346425","","q","","true","0","8","up","down","0","q","1","0","1665680981985.73","","","false","60","8","0.116666666666667","0.2","false"
"","html-keyboard-response",101,695341,"0.0-6.0-1.9-0.9",73,22,"f",1665680286941,750,"q","q","Only if I get the answer right","You win money","A fixed time limit",5,"Female","Accuracy is important as you will finish the task earlier if you get the selections right","The game is very fast and seemed to glitch sometimes.  I felt like when I fall behind the speed, it was very hard to catch back the tempo.  The speed should have been a bit sloer maybe, in order to let people concentrate.",2,2,3,0,1,0,0,1,0,0,0,2,0,0,0,0,0,1,0,1,0,1,3,1,1,1,0,1,2,1,1,1,2,0,1,2,1,0,0,0,1,2,2,0,0,2,3,1,1,2,2,2,4,3,3,2,1,2,4,3,2,1,3,"599.1000000014901","<div style=""color:green; font-size:75px;""><b>$0.20</b></div><br><br><br><br><table><tr><td><img src=static/images/oddball_up.png></td><td><img src=static/images/oddball_down.png></td><td><img src=static/images/oddball_down.png></td></tr></table>","81","1","","","","","","","","","","","","","","","","","",""
"","html-keyboard-response",102,695540.393653576,"0.0-6.0-1.9-1.9",73,22,"f",1665680286941,750,"q","q","Only if I get the answer right","You win money","A fixed time limit",5,"Female","Accuracy is important as you will finish the task earlier if you get the selections right","The game is very fast and seemed to glitch sometimes.  I felt like when I fall behind the speed, it was very hard to catch back the tempo.  The speed should have been a bit sloer maybe, in order to let people concentrate.",2,2,3,0,1,0,0,1,0,0,0,2,0,0,0,0,0,1,0,1,0,1,3,1,1,1,0,1,2,1,1,1,2,0,1,2,1,0,0,0,1,2,2,0,0,2,3,1,1,2,2,2,4,3,3,2,1,2,4,3,2,1,3,"697.493653577529","","q","","true","0","9","down","up","0","q","1","0","1665680982777.39","","","false","60","9","0.133333333333333","0.2","false"
"","html-keyboard-response",103,696014,"0.0-6.0-1.10-0.10",73,22,"f",1665680286941,750,"q","q","Only if I get the answer right","You win money","A fixed time limit",5,"Female","Accuracy is important as you will finish the task earlier if you get the selections right","The game is very fast and seemed to glitch sometimes.  I felt like when I fall behind the speed, it was very hard to catch back the tempo.  The speed should have been a bit sloer maybe, in order to let people concentrate.",2,2,3,0,1,0,0,1,0,0,0,2,0,0,0,0,0,1,0,1,0,1,3,1,1,1,0,1,2,1,1,1,2,0,1,2,1,0,0,0,1,2,2,0,0,2,3,1,1,2,2,2,4,3,3,2,1,2,4,3,2,1,3,"570.8999999985099","<div style=""color:green; font-size:75px;""><b>$0.20</b></div><br><br><br><br><table><tr><td><img src=static/images/oddball_down.png></td><td><img src=static/images/oddball_down.png></td><td><img src=static/images/oddball_up.png></td></tr></table>","69","1","","","","","","","","","","","","","","","","","",""
"","html-keyboard-response",104,696107.806764558,"0.0-6.0-1.10-1.10",73,22,"f",1665680286941,750,"q","q","Only if I get the answer right","You win money","A fixed time limit",5,"Female","Accuracy is important as you will finish the task earlier if you get the selections right","The game is very fast and seemed to glitch sometimes.  I felt like when I fall behind the speed, it was very hard to catch back the tempo.  The speed should have been a bit sloer maybe, in order to let people concentrate.",2,2,3,0,1,0,0,1,0,0,0,2,0,0,0,0,0,1,0,1,0,1,3,1,1,1,0,1,2,1,1,1,2,0,1,2,1,0,0,0,1,2,2,0,0,2,3,1,1,2,2,2,4,3,3,2,1,2,4,3,2,1,3,"551.706764556398","","e","","true","0","10","down","up","2","e","1","0","1665680983344.81","","","false","60","10","0.15","0.2","false"
"","html-keyboard-response",105,696670,"0.0-6.0-1.11-0.11",73,22,"f",1665680286941,750,"q","q","Only if I get the answer right","You win money","A fixed time limit",5,"Female","Accuracy is important as you will finish the task earlier if you get the selections right","The game is very fast and seemed to glitch sometimes.  I felt like when I fall behind the speed, it was very hard to catch back the tempo.  The speed should have been a bit sloer maybe, in order to let people concentrate.",2,2,3,0,1,0,0,1,0,0,0,2,0,0,0,0,0,1,0,1,0,1,3,1,1,1,0,1,2,1,1,1,2,0,1,2,1,0,0,0,1,2,2,0,0,2,3,1,1,2,2,2,4,3,3,2,1,2,4,3,2,1,3,"542.2000000029802","<div style=""color:green; font-size:75px;""><b>$0.20</b></div><br><br><br><br><table><tr><td><img src=static/images/oddball_up.png></td><td><img src=static/images/oddball_down.png></td><td><img src=static/images/oddball_down.png></td></tr></table>","81","1","","","","","","","","","","","","","","","","","",""
"","html-keyboard-response",106,696859.666664586,"0.0-6.0-1.11-1.11",73,22,"f",1665680286941,750,"q","q","Only if I get the answer right","You win money","A fixed time limit",5,"Female","Accuracy is important as you will finish the task earlier if you get the selections right","The game is very fast and seemed to glitch sometimes.  I felt like when I fall behind the speed, it was very hard to catch back the tempo.  The speed should have been a bit sloer maybe, in order to let people concentrate.",2,2,3,0,1,0,0,1,0,0,0,2,0,0,0,0,0,1,0,1,0,1,3,1,1,1,0,1,2,1,1,1,2,0,1,2,1,0,0,0,1,2,2,0,0,2,3,1,1,2,2,2,4,3,3,2,1,2,4,3,2,1,3,"623.866664588949","","q","","true","0","11","down","up","0","q","1","0","1665680984096.67","","","false","60","11","0.166666666666667","0.2","false"
"","html-keyboard-response",107,697294,"0.0-6.0-1.12-0.12",73,22,"f",1665680286941,750,"q","q","Only if I get the answer right","You win money","A fixed time limit",5,"Female","Accuracy is important as you will finish the task earlier if you get the selections right","The game is very fast and seemed to glitch sometimes.  I felt like when I fall behind the speed, it was very hard to catch back the tempo.  The speed should have been a bit sloer maybe, in order to let people concentrate.",2,2,3,0,1,0,0,1,0,0,0,2,0,0,0,0,0,1,0,1,0,1,3,1,1,1,0,1,2,1,1,1,2,0,1,2,1,0,0,0,1,2,2,0,0,2,3,1,1,2,2,2,4,3,3,2,1,2,4,3,2,1,3,"514.9000000059605","<div style=""color:green; font-size:75px;""><b>$0.20</b></div><br><br><br><br><table><tr><td><img src=static/images/oddball_down.png></td><td><img src=static/images/oddball_up.png></td><td><img src=static/images/oddball_down.png></td></tr></table>","87","1","","","","","","","","","","","","","","","","","",""
"","html-keyboard-response",108,697366.063648075,"0.0-6.0-1.12-1.12",73,22,"f",1665680286941,750,"q","q","Only if I get the answer right","You win money","A fixed time limit",5,"Female","Accuracy is important as you will finish the task earlier if you get the selections right","The game is very fast and seemed to glitch sometimes.  I felt like when I fall behind the speed, it was very hard to catch back the tempo.  The speed should have been a bit sloer maybe, in order to let people concentrate.",2,2,3,0,1,0,0,1,0,0,0,2,0,0,0,0,0,1,0,1,0,1,3,1,1,1,0,1,2,1,1,1,2,0,1,2,1,0,0,0,1,2,2,0,0,2,3,1,1,2,2,2,4,3,3,2,1,2,4,3,2,1,3,"484.963648080664","","w","","true","0","12","down","up","1","w","1","0","1665680984603.06","","","false","60","12","0.183333333333333","0.2","false"
"","html-keyboard-response",109,697925,"0.0-6.0-1.13-0.13",73,22,"f",1665680286941,750,"q","q","Only if I get the answer right","You win money","A fixed time limit",5,"Female","Accuracy is important as you will finish the task earlier if you get the selections right","The game is very fast and seemed to glitch sometimes.  I felt like when I fall behind the speed, it was very hard to catch back the tempo.  The speed should have been a bit sloer maybe, in order to let people concentrate.",2,2,3,0,1,0,0,1,0,0,0,2,0,0,0,0,0,1,0,1,0,1,3,1,1,1,0,1,2,1,1,1,2,0,1,2,1,0,0,0,1,2,2,0,0,2,3,1,1,2,2,2,4,3,3,2,1,2,4,3,2,1,3,"529.2000000029802","<div style=""color:green; font-size:75px;""><b>$0.20</b></div><br><br><br><br><table><tr><td><img src=static/images/oddball_up.png></td><td><img src=static/images/oddball_down.png></td><td><img src=static/images/oddball_down.png></td></tr></table>","81","1","","","","","","","","","","","","","","","","","",""
"","html-keyboard-response",110,697979.494178805,"0.0-6.0-1.13-1.13",73,22,"f",1665680286941,750,"q","q","Only if I get the answer right","You win money","A fixed time limit",5,"Female","Accuracy is important as you will finish the task earlier if you get the selections right","The game is very fast and seemed to glitch sometimes.  I felt like when I fall behind the speed, it was very hard to catch back the tempo.  The speed should have been a bit sloer maybe, in order to let people concentrate.",2,2,3,0,1,0,0,1,0,0,0,2,0,0,0,0,0,1,0,1,0,1,3,1,1,1,0,1,2,1,1,1,2,0,1,2,1,0,0,0,1,2,2,0,0,2,3,1,1,2,2,2,4,3,3,2,1,2,4,3,2,1,3,"478.6941788082","","q","","true","0","13","down","up","0","q","1","0","1665680985216.49","","","false","60","13","0.2","0.2","false"
"","html-keyboard-response",111,698786,"0.0-6.0-1.14-0.14",73,22,"f",1665680286941,750,"q","q","Only if I get the answer right","You win money","A fixed time limit",5,"Female","Accuracy is important as you will finish the task earlier if you get the selections right","The game is very fast and seemed to glitch sometimes.  I felt like when I fall behind the speed, it was very hard to catch back the tempo.  The speed should have been a bit sloer maybe, in order to let people concentrate.",2,2,3,0,1,0,0,1,0,0,0,2,0,0,0,0,0,1,0,1,0,1,3,1,1,1,0,1,2,1,1,1,2,0,1,2,1,0,0,0,1,2,2,0,0,2,3,1,1,2,2,2,4,3,3,2,1,2,4,3,2,1,3,"null","<div style=""color:green; font-size:75px;""><b>$0.20</b></div><br><br><br><br><table><tr><td><img src=static/images/oddball_down.png></td><td><img src=static/images/oddball_up.png></td><td><img src=static/images/oddball_down.png></td></tr></table>","null","","","","","","","","","","","","","","","","","","",""
"","html-keyboard-response",112,698902,"0.0-6.0-1.14-1.14",73,22,"f",1665680286941,750,"q","q","Only if I get the answer right","You win money","A fixed time limit",5,"Female","Accuracy is important as you will finish the task earlier if you get the selections right","The game is very fast and seemed to glitch sometimes.  I felt like when I fall behind the speed, it was very hard to catch back the tempo.  The speed should have been a bit sloer maybe, in order to let people concentrate.",2,2,3,0,1,0,0,1,0,0,0,2,0,0,0,0,0,1,0,1,0,1,3,1,1,1,0,1,2,1,1,1,2,0,1,2,1,0,0,0,1,2,2,0,0,2,3,1,1,2,2,2,4,3,3,2,1,2,4,3,2,1,3,"null","","null","","true","0","14","down","up","1","w","0","0","1665680986139","","","false","60","14","0.216666666666667","0.2","true"
"","html-keyboard-response",113,699013,"0.0-6.0-1.15-0.15",73,22,"f",1665680286941,750,"q","q","Only if I get the answer right","You win money","A fixed time limit",5,"Female","Accuracy is important as you will finish the task earlier if you get the selections right","The game is very fast and seemed to glitch sometimes.  I felt like when I fall behind the speed, it was very hard to catch back the tempo.  The speed should have been a bit sloer maybe, in order to let people concentrate.",2,2,3,0,1,0,0,1,0,0,0,2,0,0,0,0,0,1,0,1,0,1,3,1,1,1,0,1,2,1,1,1,2,0,1,2,1,0,0,0,1,2,2,0,0,2,3,1,1,2,2,2,4,3,3,2,1,2,4,3,2,1,3,"110.79999999701977","<div style=""color:green; font-size:75px;""><b>$0.20</b></div><br><br><br><br><table><tr><td><img src=static/images/oddball_up.png></td><td><img src=static/images/oddball_down.png></td><td><img src=static/images/oddball_down.png></td></tr></table>","87","1","","","","","","","","","","","","","","","","","",""
"","html-keyboard-response",114,699116.910875699,"0.0-6.0-1.15-1.15",73,22,"f",1665680286941,750,"q","q","Only if I get the answer right","You win money","A fixed time limit",5,"Female","Accuracy is important as you will finish the task earlier if you get the selections right","The game is very fast and seemed to glitch sometimes.  I felt like when I fall behind the speed, it was very hard to catch back the tempo.  The speed should have been a bit sloer maybe, in order to let people concentrate.",2,2,3,0,1,0,0,1,0,0,0,2,0,0,0,0,0,1,0,1,0,1,3,1,1,1,0,1,2,1,1,1,2,0,1,2,1,0,0,0,1,2,2,0,0,2,3,1,1,2,2,2,4,3,3,2,1,2,4,3,2,1,3,"111.710875696274","","w","","true","0","15","down","up","0","q","0","0","1665680986353.91","","","false","60","15","0.216666666666667","0.2","false"
"","html-keyboard-response",115,699872,"0.0-6.0-1.16-0.16",73,22,"f",1665680286941,750,"q","q","Only if I get the answer right","You win money","A fixed time limit",5,"Female","Accuracy is important as you will finish the task earlier if you get the selections right","The game is very fast and seemed to glitch sometimes.  I felt like when I fall behind the speed, it was very hard to catch back the tempo.  The speed should have been a bit sloer maybe, in order to let people concentrate.",2,2,3,0,1,0,0,1,0,0,0,2,0,0,0,0,0,1,0,1,0,1,3,1,1,1,0,1,2,1,1,1,2,0,1,2,1,0,0,0,1,2,2,0,0,2,3,1,1,2,2,2,4,3,3,2,1,2,4,3,2,1,3,"null","<div style=""color:green; font-size:75px;""><b>$0.20</b></div><br><br><br><br><table><tr><td><img src=static/images/oddball_down.png></td><td><img src=static/images/oddball_up.png></td><td><img src=static/images/oddball_down.png></td></tr></table>","null","","","","","","","","","","","","","","","","","","",""
"","html-keyboard-response",116,699988,"0.0-6.0-1.16-1.16",73,22,"f",1665680286941,750,"q","q","Only if I get the answer right","You win money","A fixed time limit",5,"Female","Accuracy is important as you will finish the task earlier if you get the selections right","The game is very fast and seemed to glitch sometimes.  I felt like when I fall behind the speed, it was very hard to catch back the tempo.  The speed should have been a bit sloer maybe, in order to let people concentrate.",2,2,3,0,1,0,0,1,0,0,0,2,0,0,0,0,0,1,0,1,0,1,3,1,1,1,0,1,2,1,1,1,2,0,1,2,1,0,0,0,1,2,2,0,0,2,3,1,1,2,2,2,4,3,3,2,1,2,4,3,2,1,3,"null","","null","","true","0","16","down","up","1","w","0","0","1665680987225","","","false","60","16","0.216666666666667","0.2","true"
"","html-keyboard-response",117,700094,"0.0-6.0-1.17-0.17",73,22,"f",1665680286941,750,"q","q","Only if I get the answer right","You win money","A fixed time limit",5,"Female","Accuracy is important as you will finish the task earlier if you get the selections right","The game is very fast and seemed to glitch sometimes.  I felt like when I fall behind the speed, it was very hard to catch back the tempo.  The speed should have been a bit sloer maybe, in order to let people concentrate.",2,2,3,0,1,0,0,1,0,0,0,2,0,0,0,0,0,1,0,1,0,1,3,1,1,1,0,1,2,1,1,1,2,0,1,2,1,0,0,0,1,2,2,0,0,2,3,1,1,2,2,2,4,3,3,2,1,2,4,3,2,1,3,"104.60000000149012","<div style=""color:green; font-size:75px;""><b>$0.20</b></div><br><br><br><br><table><tr><td><img src=static/images/oddball_down.png></td><td><img src=static/images/oddball_up.png></td><td><img src=static/images/oddball_down.png></td></tr></table>","87","1","","","","","","","","","","","","","","","","","",""
"","html-keyboard-response",118,700201,"0.0-6.0-1.17-1.17",73,22,"f",1665680286941,750,"q","q","Only if I get the answer right","You win money","A fixed time limit",5,"Female","Accuracy is important as you will finish the task earlier if you get the selections right","The game is very fast and seemed to glitch sometimes.  I felt like when I fall behind the speed, it was very hard to catch back the tempo.  The speed should have been a bit sloer maybe, in order to let people concentrate.",2,2,3,0,1,0,0,1,0,0,0,2,0,0,0,0,0,1,0,1,0,1,3,1,1,1,0,1,2,1,1,1,2,0,1,2,1,0,0,0,1,2,2,0,0,2,3,1,1,2,2,2,4,3,3,2,1,2,4,3,2,1,3,"104.60000000149012","","w","","true","0","17","down","up","1","w","1","0","1665680987438","","","false","60","17","0.216666666666667","0.2","false"
"","html-keyboard-response",119,700806,"0.0-6.0-1.18-0.18",73,22,"f",1665680286941,750,"q","q","Only if I get the answer right","You win money","A fixed time limit",5,"Female","Accuracy is important as you will finish the task earlier if you get the selections right","The game is very fast and seemed to glitch sometimes.  I felt like when I fall behind the speed, it was very hard to catch back the tempo.  The speed should have been a bit sloer maybe, in order to let people concentrate.",2,2,3,0,1,0,0,1,0,0,0,2,0,0,0,0,0,1,0,1,0,1,3,1,1,1,0,1,2,1,1,1,2,0,1,2,1,0,0,0,1,2,2,0,0,2,3,1,1,2,2,2,4,3,3,2,1,2,4,3,2,1,3,"604.3999999985099","<div style=""color:green; font-size:75px;""><b>$0.20</b></div><br><br><br><br><table><tr><td><img src=static/images/oddball_down.png></td><td><img src=static/images/oddball_down.png></td><td><img src=static/images/oddball_up.png></td></tr></table>","69","1","","","","","","","","","","","","","","","","","",""
"","html-keyboard-response",120,701005.398370498,"0.0-6.0-1.18-1.18",73,22,"f",1665680286941,750,"q","q","Only if I get the answer right","You win money","A fixed time limit",5,"Female","Accuracy is important as you will finish the task earlier if you get the selections right","The game is very fast and seemed to glitch sometimes.  I felt like when I fall behind the speed, it was very hard to catch back the tempo.  The speed should have been a bit sloer maybe, in order to let people concentrate.",2,2,3,0,1,0,0,1,0,0,0,2,0,0,0,0,0,1,0,1,0,1,3,1,1,1,0,1,2,1,1,1,2,0,1,2,1,0,0,0,1,2,2,0,0,2,3,1,1,2,2,2,4,3,3,2,1,2,4,3,2,1,3,"690.798370496889","","e","","true","0","18","down","up","2","e","1","0","1665680988242.4","","","false","60","18","0.233333333333333","0.2","false"
"","html-keyboard-response",121,701455,"0.0-6.0-1.19-0.19",73,22,"f",1665680286941,750,"q","q","Only if I get the answer right","You win money","A fixed time limit",5,"Female","Accuracy is important as you will finish the task earlier if you get the selections right","The game is very fast and seemed to glitch sometimes.  I felt like when I fall behind the speed, it was very hard to catch back the tempo.  The speed should have been a bit sloer maybe, in order to let people concentrate.",2,2,3,0,1,0,0,1,0,0,0,2,0,0,0,0,0,1,0,1,0,1,3,1,1,1,0,1,2,1,1,1,2,0,1,2,1,0,0,0,1,2,2,0,0,2,3,1,1,2,2,2,4,3,3,2,1,2,4,3,2,1,3,"533.8999999985099","<div style=""color:green; font-size:75px;""><b>$0.20</b></div><br><br><br><br><table><tr><td><img src=static/images/oddball_down.png></td><td><img src=static/images/oddball_up.png></td><td><img src=static/images/oddball_down.png></td></tr></table>","87","1","","","","","","","","","","","","","","","","","",""
"","html-keyboard-response",122,701666.12160933,"0.0-6.0-1.19-1.19",73,22,"f",1665680286941,750,"q","q","Only if I get the answer right","You win money","A fixed time limit",5,"Female","Accuracy is important as you will finish the task earlier if you get the selections right","The game is very fast and seemed to glitch sometimes.  I felt like when I fall behind the speed, it was very hard to catch back the tempo.  The speed should have been a bit sloer maybe, in order to let people concentrate.",2,2,3,0,1,0,0,1,0,0,0,2,0,0,0,0,0,1,0,1,0,1,3,1,1,1,0,1,2,1,1,1,2,0,1,2,1,0,0,0,1,2,2,0,0,2,3,1,1,2,2,2,4,3,3,2,1,2,4,3,2,1,3,"630.021609328419","","w","","true","0","19","down","up","1","w","1","0","1665680988903.12","","","false","60","19","0.25","0.2","false"
"","html-keyboard-response",123,702062,"0.0-6.0-1.20-0.20",73,22,"f",1665680286941,750,"q","q","Only if I get the answer right","You win money","A fixed time limit",5,"Female","Accuracy is important as you will finish the task earlier if you get the selections right","The game is very fast and seemed to glitch sometimes.  I felt like when I fall behind the speed, it was very hard to catch back the tempo.  The speed should have been a bit sloer maybe, in order to let people concentrate.",2,2,3,0,1,0,0,1,0,0,0,2,0,0,0,0,0,1,0,1,0,1,3,1,1,1,0,1,2,1,1,1,2,0,1,2,1,0,0,0,1,2,2,0,0,2,3,1,1,2,2,2,4,3,3,2,1,2,4,3,2,1,3,"490.5","<div style=""color:green; font-size:75px;""><b>$0.20</b></div><br><br><br><br><table><tr><td><img src=static/images/oddball_up.png></td><td><img src=static/images/oddball_down.png></td><td><img src=static/images/oddball_down.png></td></tr></table>","81","1","","","","","","","","","","","","","","","","","",""
