"success","trial_type","trial_index","time_elapsed","internal_node_id","subject","age","sex","date","deadline","instQ1","instQ2","instQ3","instQ4","instQ5","totalInstQ","gender","strategy","comments","DASS1_s","DASS2_a","DASS3_d","DASS4_a","DASS5_d","DASS6_s","DASS7_a","DASS8_s","DASS9_a","DASS10_d","DASS11_s","DASS12_s","DASS13_d","DASS14_s","DASS15_a","DASS16_d","DASS17_d","DASS18_s","DASS19_a","DASS20_a","DASS21_d","BB1","BB2","BB3","BB4","BB5","BB6","BB7","BB8","BB9","BB10","BB11","BB12","BB13","BB14","BB15","BB16","BB17","BB18","BB19","BB20","BB21","BB22","BB23","BB24","NFC1","NFC2","NFC3","NFC4","NFC5","NFC6","NFC7","NFC8","NFC9","NFC10","NFC11","NFC12","NFC13","NFC14","NFC15","NFC16","NFC17","NFC18","rt","stimulus","key_press","npress","isDataTrial","block","trialinblock","common","odd","oddidx","correct_ans","accuracy","totalTokens","timestamp","responses","question_order","showprog","blocklen","trial","progress","reward","timedout"
"true","fullscreen",0,4211,"0.0-0.0",81,20,FALSE,1666202568453,750,"q","q","Only if I get the answer right","You win money","A fixed time limit",5,"Female","no","no",0,0,0,0,0,0,0,0,1,0,0,0,0,0,1,0,0,0,0,1,0,0,2,2,0,0,1,1,1,2,2,2,2,0,1,2,1,1,0,0,0,1,1,0,0,2,3,1,3,1,2,3,4,3,2,3,0,3,3,4,4,0,1,"","","","","","","","","","","","","","","","","","","","","",""
"","image-keyboard-response",1,95400,"0.0-1.0-0.0",81,20,FALSE,1666202568453,750,"q","q","Only if I get the answer right","You win money","A fixed time limit",5,"Female","no","no",0,0,0,0,0,0,0,0,1,0,0,0,0,0,1,0,0,0,0,1,0,0,2,2,0,0,1,1,1,2,2,2,2,0,1,2,1,1,0,0,0,1,1,0,0,2,3,1,3,1,2,3,4,3,2,3,0,3,3,4,4,0,1,"91170.10000002384","static/images/instructions/Slide1.png","39","","","","","","","","","","","","","","","","","","",""
"","image-keyboard-response",2,99487,"0.0-1.1-0.1",81,20,FALSE,1666202568453,750,"q","q","Only if I get the answer right","You win money","A fixed time limit",5,"Female","no","no",0,0,0,0,0,0,0,0,1,0,0,0,0,0,1,0,0,0,0,1,0,0,2,2,0,0,1,1,1,2,2,2,2,0,1,2,1,1,0,0,0,1,1,0,0,2,3,1,3,1,2,3,4,3,2,3,0,3,3,4,4,0,1,"4084.2000000476837","static/images/instructions/Slide2.png","39","","","","","","","","","","","","","","","","","","",""
"","image-keyboard-response",3,107182,"0.0-1.2-0.2",81,20,FALSE,1666202568453,750,"q","q","Only if I get the answer right","You win money","A fixed time limit",5,"Female","no","no",0,0,0,0,0,0,0,0,1,0,0,0,0,0,1,0,0,0,0,1,0,0,2,2,0,0,1,1,1,2,2,2,2,0,1,2,1,1,0,0,0,1,1,0,0,2,3,1,3,1,2,3,4,3,2,3,0,3,3,4,4,0,1,"7694.600000023842","static/images/instructions/Slide3.png","39","","","","","","","","","","","","","","","","","","",""
"","image-keyboard-response",4,110223,"0.0-1.3-0.3",81,20,FALSE,1666202568453,750,"q","q","Only if I get the answer right","You win money","A fixed time limit",5,"Female","no","no",0,0,0,0,0,0,0,0,1,0,0,0,0,0,1,0,0,0,0,1,0,0,2,2,0,0,1,1,1,2,2,2,2,0,1,2,1,1,0,0,0,1,1,0,0,2,3,1,3,1,2,3,4,3,2,3,0,3,3,4,4,0,1,"3039.600000023842","static/images/instructions/Slide4.png","39","","","","","","","","","","","","","","","","","","",""
"","image-keyboard-response",5,113038,"0.0-1.4-0.4",81,20,FALSE,1666202568453,750,"q","q","Only if I get the answer right","You win money","A fixed time limit",5,"Female","no","no",0,0,0,0,0,0,0,0,1,0,0,0,0,0,1,0,0,0,0,1,0,0,2,2,0,0,1,1,1,2,2,2,2,0,1,2,1,1,0,0,0,1,1,0,0,2,3,1,3,1,2,3,4,3,2,3,0,3,3,4,4,0,1,"2823.2999999523163","static/images/instructions/Slide5.png","39","","","","","","","","","","","","","","","","","","",""
"","image-keyboard-response",6,114519,"0.0-1.5-0.5",81,20,FALSE,1666202568453,750,"q","q","Only if I get the answer right","You win money","A fixed time limit",5,"Female","no","no",0,0,0,0,0,0,0,0,1,0,0,0,0,0,1,0,0,0,0,1,0,0,2,2,0,0,1,1,1,2,2,2,2,0,1,2,1,1,0,0,0,1,1,0,0,2,3,1,3,1,2,3,4,3,2,3,0,3,3,4,4,0,1,"1479.5","static/images/instructions/Slide6.png","39","","","","","","","","","","","","","","","","","","",""
"","image-keyboard-response",7,186316,"0.0-1.6-0.6",81,20,FALSE,1666202568453,750,"q","q","Only if I get the answer right","You win money","A fixed time limit",5,"Female","no","no",0,0,0,0,0,0,0,0,1,0,0,0,0,0,1,0,0,0,0,1,0,0,2,2,0,0,1,1,1,2,2,2,2,0,1,2,1,1,0,0,0,1,1,0,0,2,3,1,3,1,2,3,4,3,2,3,0,3,3,4,4,0,1,"71798.89999997616","static/images/instructions/Slide7.png","39","","","","","","","","","","","","","","","","","","",""
"","html-keyboard-response",8,188629,"0.0-2.0-0.0",81,20,FALSE,1666202568453,750,"q","q","Only if I get the answer right","You win money","A fixed time limit",5,"Female","no","no",0,0,0,0,0,0,0,0,1,0,0,0,0,0,1,0,0,0,0,1,0,0,2,2,0,0,1,1,1,2,2,2,2,0,1,2,1,1,0,0,0,1,1,0,0,2,3,1,3,1,2,3,4,3,2,3,0,3,3,4,4,0,1,"2274.2999999523163","<br><br><br><br><table><tr><td><img src=static/images/oddball_down.png></td><td><img src=static/images/oddball_up.png></td><td><img src=static/images/oddball_down.png></td></tr></table>","87","1","","","","","","","","","","","","","","","","","",""
"","html-keyboard-response",9,191152,"0.0-2.0-1.0",81,20,FALSE,1666202568453,750,"q","q","Only if I get the answer right","You win money","A fixed time limit",5,"Female","no","no",0,0,0,0,0,0,0,0,1,0,0,0,0,0,1,0,0,0,0,1,0,0,2,2,0,0,1,1,1,2,2,2,2,0,1,2,1,1,0,0,0,1,1,0,0,2,3,1,3,1,2,3,4,3,2,3,0,3,3,4,4,0,1,"null","<div style=""font-size:75px;""><b>Correct</b></div>","null","","","","","","","","","","","","","","","","","","",""
"","html-keyboard-response",10,192205,"0.0-2.0-2.0",81,20,FALSE,1666202568453,750,"q","q","Only if I get the answer right","You win money","A fixed time limit",5,"Female","no","no",0,0,0,0,0,0,0,0,1,0,0,0,0,0,1,0,0,0,0,1,0,0,2,2,0,0,1,1,1,2,2,2,2,0,1,2,1,1,0,0,0,1,1,0,0,2,3,1,3,1,2,3,4,3,2,3,0,3,3,4,4,0,1,"2274.2999999523163","","w","","true","practice","0","down","up","1","w","1","0","1666202762031","","","","","","","",""
"","html-keyboard-response",11,193124,"0.0-2.1-0.1",81,20,FALSE,1666202568453,750,"q","q","Only if I get the answer right","You win money","A fixed time limit",5,"Female","no","no",0,0,0,0,0,0,0,0,1,0,0,0,0,0,1,0,0,0,0,1,0,0,2,2,0,0,1,1,1,2,2,2,2,0,1,2,1,1,0,0,0,1,1,0,0,2,3,1,3,1,2,3,4,3,2,3,0,3,3,4,4,0,1,"917.6000000238419","<br><br><br><br><table><tr><td><img src=static/images/oddball_up.png></td><td><img src=static/images/oddball_down.png></td><td><img src=static/images/oddball_down.png></td></tr></table>","81","1","","","","","","","","","","","","","","","","","",""
"","html-keyboard-response",12,195634,"0.0-2.1-1.1",81,20,FALSE,1666202568453,750,"q","q","Only if I get the answer right","You win money","A fixed time limit",5,"Female","no","no",0,0,0,0,0,0,0,0,1,0,0,0,0,0,1,0,0,0,0,1,0,0,2,2,0,0,1,1,1,2,2,2,2,0,1,2,1,1,0,0,0,1,1,0,0,2,3,1,3,1,2,3,4,3,2,3,0,3,3,4,4,0,1,"null","<div style=""font-size:75px;""><b>Correct</b></div>","null","","","","","","","","","","","","","","","","","","",""
"","html-keyboard-response",13,196639,"0.0-2.1-2.1",81,20,FALSE,1666202568453,750,"q","q","Only if I get the answer right","You win money","A fixed time limit",5,"Female","no","no",0,0,0,0,0,0,0,0,1,0,0,0,0,0,1,0,0,0,0,1,0,0,2,2,0,0,1,1,1,2,2,2,2,0,1,2,1,1,0,0,0,1,1,0,0,2,3,1,3,1,2,3,4,3,2,3,0,3,3,4,4,0,1,"917.6000000238419","","q","","true","practice","1","down","up","0","q","1","0","1666202766465","","","","","","","",""
"","html-keyboard-response",14,197525,"0.0-2.2-0.2",81,20,FALSE,1666202568453,750,"q","q","Only if I get the answer right","You win money","A fixed time limit",5,"Female","no","no",0,0,0,0,0,0,0,0,1,0,0,0,0,0,1,0,0,0,0,1,0,0,2,2,0,0,1,1,1,2,2,2,2,0,1,2,1,1,0,0,0,1,1,0,0,2,3,1,3,1,2,3,4,3,2,3,0,3,3,4,4,0,1,"885.8999999761581","<br><br><br><br><table><tr><td><img src=static/images/oddball_up.png></td><td><img src=static/images/oddball_up.png></td><td><img src=static/images/oddball_down.png></td></tr></table>","69","1","","","","","","","","","","","","","","","","","",""
"","html-keyboard-response",15,200040,"0.0-2.2-1.2",81,20,FALSE,1666202568453,750,"q","q","Only if I get the answer right","You win money","A fixed time limit",5,"Female","no","no",0,0,0,0,0,0,0,0,1,0,0,0,0,0,1,0,0,0,0,1,0,0,2,2,0,0,1,1,1,2,2,2,2,0,1,2,1,1,0,0,0,1,1,0,0,2,3,1,3,1,2,3,4,3,2,3,0,3,3,4,4,0,1,"null","<div style=""font-size:75px;""><b>Correct</b></div>","null","","","","","","","","","","","","","","","","","","",""
"","html-keyboard-response",16,201046,"0.0-2.2-2.2",81,20,FALSE,1666202568453,750,"q","q","Only if I get the answer right","You win money","A fixed time limit",5,"Female","no","no",0,0,0,0,0,0,0,0,1,0,0,0,0,0,1,0,0,0,0,1,0,0,2,2,0,0,1,1,1,2,2,2,2,0,1,2,1,1,0,0,0,1,1,0,0,2,3,1,3,1,2,3,4,3,2,3,0,3,3,4,4,0,1,"885.8999999761581","","e","","true","practice","2","up","down","2","e","1","0","1666202770872","","","","","","","",""
"","html-keyboard-response",17,201819,"0.0-2.3-0.3",81,20,FALSE,1666202568453,750,"q","q","Only if I get the answer right","You win money","A fixed time limit",5,"Female","no","no",0,0,0,0,0,0,0,0,1,0,0,0,0,0,1,0,0,0,0,1,0,0,2,2,0,0,1,1,1,2,2,2,2,0,1,2,1,1,0,0,0,1,1,0,0,2,3,1,3,1,2,3,4,3,2,3,0,3,3,4,4,0,1,"773","<br><br><br><br><table><tr><td><img src=static/images/oddball_up.png></td><td><img src=static/images/oddball_up.png></td><td><img src=static/images/oddball_down.png></td></tr></table>","69","1","","","","","","","","","","","","","","","","","",""
"","html-keyboard-response",18,204333,"0.0-2.3-1.3",81,20,FALSE,1666202568453,750,"q","q","Only if I get the answer right","You win money","A fixed time limit",5,"Female","no","no",0,0,0,0,0,0,0,0,1,0,0,0,0,0,1,0,0,0,0,1,0,0,2,2,0,0,1,1,1,2,2,2,2,0,1,2,1,1,0,0,0,1,1,0,0,2,3,1,3,1,2,3,4,3,2,3,0,3,3,4,4,0,1,"null","<div style=""font-size:75px;""><b>Correct</b></div>","null","","","","","","","","","","","","","","","","","","",""
"","html-keyboard-response",19,205346,"0.0-2.3-2.3",81,20,FALSE,1666202568453,750,"q","q","Only if I get the answer right","You win money","A fixed time limit",5,"Female","no","no",0,0,0,0,0,0,0,0,1,0,0,0,0,0,1,0,0,0,0,1,0,0,2,2,0,0,1,1,1,2,2,2,2,0,1,2,1,1,0,0,0,1,1,0,0,2,3,1,3,1,2,3,4,3,2,3,0,3,3,4,4,0,1,"773","","e","","true","practice","3","up","down","2","e","1","0","1666202775173","","","","","","","",""
"","html-keyboard-response",20,205963,"0.0-2.4-0.4",81,20,FALSE,1666202568453,750,"q","q","Only if I get the answer right","You win money","A fixed time limit",5,"Female","no","no",0,0,0,0,0,0,0,0,1,0,0,0,0,0,1,0,0,0,0,1,0,0,2,2,0,0,1,1,1,2,2,2,2,0,1,2,1,1,0,0,0,1,1,0,0,2,3,1,3,1,2,3,4,3,2,3,0,3,3,4,4,0,1,"616.2999999523163","<br><br><br><br><table><tr><td><img src=static/images/oddball_up.png></td><td><img src=static/images/oddball_down.png></td><td><img src=static/images/oddball_up.png></td></tr></table>","87","1","","","","","","","","","","","","","","","","","",""
"","html-keyboard-response",21,208474,"0.0-2.4-1.4",81,20,FALSE,1666202568453,750,"q","q","Only if I get the answer right","You win money","A fixed time limit",5,"Female","no","no",0,0,0,0,0,0,0,0,1,0,0,0,0,0,1,0,0,0,0,1,0,0,2,2,0,0,1,1,1,2,2,2,2,0,1,2,1,1,0,0,0,1,1,0,0,2,3,1,3,1,2,3,4,3,2,3,0,3,3,4,4,0,1,"null","<div style=""font-size:75px;""><b>Correct</b></div>","null","","","","","","","","","","","","","","","","","","",""
"","html-keyboard-response",22,209478,"0.0-2.4-2.4",81,20,FALSE,1666202568453,750,"q","q","Only if I get the answer right","You win money","A fixed time limit",5,"Female","no","no",0,0,0,0,0,0,0,0,1,0,0,0,0,0,1,0,0,0,0,1,0,0,2,2,0,0,1,1,1,2,2,2,2,0,1,2,1,1,0,0,0,1,1,0,0,2,3,1,3,1,2,3,4,3,2,3,0,3,3,4,4,0,1,"616.2999999523163","","w","","true","practice","4","up","down","1","w","1","0","1666202779304","","","","","","","",""
"","html-keyboard-response",23,210275,"0.0-2.5-0.5",81,20,FALSE,1666202568453,750,"q","q","Only if I get the answer right","You win money","A fixed time limit",5,"Female","no","no",0,0,0,0,0,0,0,0,1,0,0,0,0,0,1,0,0,0,0,1,0,0,2,2,0,0,1,1,1,2,2,2,2,0,1,2,1,1,0,0,0,1,1,0,0,2,3,1,3,1,2,3,4,3,2,3,0,3,3,4,4,0,1,"796.2999999523163","<br><br><br><br><table><tr><td><img src=static/images/oddball_down.png></td><td><img src=static/images/oddball_down.png></td><td><img src=static/images/oddball_up.png></td></tr></table>","69","1","","","","","","","","","","","","","","","","","",""
"","html-keyboard-response",24,212783,"0.0-2.5-1.5",81,20,FALSE,1666202568453,750,"q","q","Only if I get the answer right","You win money","A fixed time limit",5,"Female","no","no",0,0,0,0,0,0,0,0,1,0,0,0,0,0,1,0,0,0,0,1,0,0,2,2,0,0,1,1,1,2,2,2,2,0,1,2,1,1,0,0,0,1,1,0,0,2,3,1,3,1,2,3,4,3,2,3,0,3,3,4,4,0,1,"null","<div style=""font-size:75px;""><b>Correct</b></div>","null","","","","","","","","","","","","","","","","","","",""
"","html-keyboard-response",25,213857,"0.0-2.5-2.5",81,20,FALSE,1666202568453,750,"q","q","Only if I get the answer right","You win money","A fixed time limit",5,"Female","no","no",0,0,0,0,0,0,0,0,1,0,0,0,0,0,1,0,0,0,0,1,0,0,2,2,0,0,1,1,1,2,2,2,2,0,1,2,1,1,0,0,0,1,1,0,0,2,3,1,3,1,2,3,4,3,2,3,0,3,3,4,4,0,1,"796.2999999523163","","e","","true","practice","5","down","up","2","e","1","0","1666202783683","","","","","","","",""
"","html-keyboard-response",26,214504,"0.0-2.6-0.6",81,20,FALSE,1666202568453,750,"q","q","Only if I get the answer right","You win money","A fixed time limit",5,"Female","no","no",0,0,0,0,0,0,0,0,1,0,0,0,0,0,1,0,0,0,0,1,0,0,2,2,0,0,1,1,1,2,2,2,2,0,1,2,1,1,0,0,0,1,1,0,0,2,3,1,3,1,2,3,4,3,2,3,0,3,3,4,4,0,1,"637.6999999284744","<br><br><br><br><table><tr><td><img src=static/images/oddball_down.png></td><td><img src=static/images/oddball_up.png></td><td><img src=static/images/oddball_down.png></td></tr></table>","87","1","","","","","","","","","","","","","","","","","",""
"","html-keyboard-response",27,217007,"0.0-2.6-1.6",81,20,FALSE,1666202568453,750,"q","q","Only if I get the answer right","You win money","A fixed time limit",5,"Female","no","no",0,0,0,0,0,0,0,0,1,0,0,0,0,0,1,0,0,0,0,1,0,0,2,2,0,0,1,1,1,2,2,2,2,0,1,2,1,1,0,0,0,1,1,0,0,2,3,1,3,1,2,3,4,3,2,3,0,3,3,4,4,0,1,"null","<div style=""font-size:75px;""><b>Correct</b></div>","null","","","","","","","","","","","","","","","","","","",""
"","html-keyboard-response",28,218012,"0.0-2.6-2.6",81,20,FALSE,1666202568453,750,"q","q","Only if I get the answer right","You win money","A fixed time limit",5,"Female","no","no",0,0,0,0,0,0,0,0,1,0,0,0,0,0,1,0,0,0,0,1,0,0,2,2,0,0,1,1,1,2,2,2,2,0,1,2,1,1,0,0,0,1,1,0,0,2,3,1,3,1,2,3,4,3,2,3,0,3,3,4,4,0,1,"637.6999999284744","","w","","true","practice","6","down","up","1","w","1","0","1666202787838","","","","","","","",""
"","html-keyboard-response",29,218675,"0.0-2.7-0.7",81,20,FALSE,1666202568453,750,"q","q","Only if I get the answer right","You win money","A fixed time limit",5,"Female","no","no",0,0,0,0,0,0,0,0,1,0,0,0,0,0,1,0,0,0,0,1,0,0,2,2,0,0,1,1,1,2,2,2,2,0,1,2,1,1,0,0,0,1,1,0,0,2,3,1,3,1,2,3,4,3,2,3,0,3,3,4,4,0,1,"662.6000000238419","<br><br><br><br><table><tr><td><img src=static/images/oddball_down.png></td><td><img src=static/images/oddball_up.png></td><td><img src=static/images/oddball_up.png></td></tr></table>","81","1","","","","","","","","","","","","","","","","","",""
"","html-keyboard-response",30,221182,"0.0-2.7-1.7",81,20,FALSE,1666202568453,750,"q","q","Only if I get the answer right","You win money","A fixed time limit",5,"Female","no","no",0,0,0,0,0,0,0,0,1,0,0,0,0,0,1,0,0,0,0,1,0,0,2,2,0,0,1,1,1,2,2,2,2,0,1,2,1,1,0,0,0,1,1,0,0,2,3,1,3,1,2,3,4,3,2,3,0,3,3,4,4,0,1,"null","<div style=""font-size:75px;""><b>Correct</b></div>","null","","","","","","","","","","","","","","","","","","",""
"","html-keyboard-response",31,222188,"0.0-2.7-2.7",81,20,FALSE,1666202568453,750,"q","q","Only if I get the answer right","You win money","A fixed time limit",5,"Female","no","no",0,0,0,0,0,0,0,0,1,0,0,0,0,0,1,0,0,0,0,1,0,0,2,2,0,0,1,1,1,2,2,2,2,0,1,2,1,1,0,0,0,1,1,0,0,2,3,1,3,1,2,3,4,3,2,3,0,3,3,4,4,0,1,"662.6000000238419","","q","","true","practice","7","up","down","0","q","1","0","1666202792014","","","","","","","",""
"","html-keyboard-response",32,222859,"0.0-2.8-0.8",81,20,FALSE,1666202568453,750,"q","q","Only if I get the answer right","You win money","A fixed time limit",5,"Female","no","no",0,0,0,0,0,0,0,0,1,0,0,0,0,0,1,0,0,0,0,1,0,0,2,2,0,0,1,1,1,2,2,2,2,0,1,2,1,1,0,0,0,1,1,0,0,2,3,1,3,1,2,3,4,3,2,3,0,3,3,4,4,0,1,"670.6000000238419","<br><br><br><br><table><tr><td><img src=static/images/oddball_up.png></td><td><img src=static/images/oddball_up.png></td><td><img src=static/images/oddball_down.png></td></tr></table>","69","1","","","","","","","","","","","","","","","","","",""
"","html-keyboard-response",33,225372,"0.0-2.8-1.8",81,20,FALSE,1666202568453,750,"q","q","Only if I get the answer right","You win money","A fixed time limit",5,"Female","no","no",0,0,0,0,0,0,0,0,1,0,0,0,0,0,1,0,0,0,0,1,0,0,2,2,0,0,1,1,1,2,2,2,2,0,1,2,1,1,0,0,0,1,1,0,0,2,3,1,3,1,2,3,4,3,2,3,0,3,3,4,4,0,1,"null","<div style=""font-size:75px;""><b>Correct</b></div>","null","","","","","","","","","","","","","","","","","","",""
"","html-keyboard-response",34,226377,"0.0-2.8-2.8",81,20,FALSE,1666202568453,750,"q","q","Only if I get the answer right","You win money","A fixed time limit",5,"Female","no","no",0,0,0,0,0,0,0,0,1,0,0,0,0,0,1,0,0,0,0,1,0,0,2,2,0,0,1,1,1,2,2,2,2,0,1,2,1,1,0,0,0,1,1,0,0,2,3,1,3,1,2,3,4,3,2,3,0,3,3,4,4,0,1,"670.6000000238419","","e","","true","practice","8","up","down","2","e","1","0","1666202796203","","","","","","","",""
"","html-keyboard-response",35,227563,"0.0-2.9-0.9",81,20,FALSE,1666202568453,750,"q","q","Only if I get the answer right","You win money","A fixed time limit",5,"Female","no","no",0,0,0,0,0,0,0,0,1,0,0,0,0,0,1,0,0,0,0,1,0,0,2,2,0,0,1,1,1,2,2,2,2,0,1,2,1,1,0,0,0,1,1,0,0,2,3,1,3,1,2,3,4,3,2,3,0,3,3,4,4,0,1,"1184.6000000238419","<br><br><br><br><table><tr><td><img src=static/images/oddball_down.png></td><td><img src=static/images/oddball_down.png></td><td><img src=static/images/oddball_up.png></td></tr></table>","69","1","","","","","","","","","","","","","","","","","",""
"","html-keyboard-response",36,230067,"0.0-2.9-1.9",81,20,FALSE,1666202568453,750,"q","q","Only if I get the answer right","You win money","A fixed time limit",5,"Female","no","no",0,0,0,0,0,0,0,0,1,0,0,0,0,0,1,0,0,0,0,1,0,0,2,2,0,0,1,1,1,2,2,2,2,0,1,2,1,1,0,0,0,1,1,0,0,2,3,1,3,1,2,3,4,3,2,3,0,3,3,4,4,0,1,"null","<div style=""font-size:75px;""><b>Correct</b></div>","null","","","","","","","","","","","","","","","","","","",""
"","html-keyboard-response",37,231071,"0.0-2.9-2.9",81,20,FALSE,1666202568453,750,"q","q","Only if I get the answer right","You win money","A fixed time limit",5,"Female","no","no",0,0,0,0,0,0,0,0,1,0,0,0,0,0,1,0,0,0,0,1,0,0,2,2,0,0,1,1,1,2,2,2,2,0,1,2,1,1,0,0,0,1,1,0,0,2,3,1,3,1,2,3,4,3,2,3,0,3,3,4,4,0,1,"1184.6000000238419","","e","","true","practice","9","down","up","2","e","1","0","1666202800897","","","","","","","",""
"","html-keyboard-response",38,231731,"0.0-2.10-0.10",81,20,FALSE,1666202568453,750,"q","q","Only if I get the answer right","You win money","A fixed time limit",5,"Female","no","no",0,0,0,0,0,0,0,0,1,0,0,0,0,0,1,0,0,0,0,1,0,0,2,2,0,0,1,1,1,2,2,2,2,0,1,2,1,1,0,0,0,1,1,0,0,2,3,1,3,1,2,3,4,3,2,3,0,3,3,4,4,0,1,"660.0999999046326","<br><br><br><br><table><tr><td><img src=static/images/oddball_up.png></td><td><img src=static/images/oddball_down.png></td><td><img src=static/images/oddball_down.png></td></tr></table>","81","1","","","","","","","","","","","","","","","","","",""
"","html-keyboard-response",39,234239,"0.0-2.10-1.10",81,20,FALSE,1666202568453,750,"q","q","Only if I get the answer right","You win money","A fixed time limit",5,"Female","no","no",0,0,0,0,0,0,0,0,1,0,0,0,0,0,1,0,0,0,0,1,0,0,2,2,0,0,1,1,1,2,2,2,2,0,1,2,1,1,0,0,0,1,1,0,0,2,3,1,3,1,2,3,4,3,2,3,0,3,3,4,4,0,1,"null","<div style=""font-size:75px;""><b>Correct</b></div>","null","","","","","","","","","","","","","","","","","","",""
"","html-keyboard-response",40,235243,"0.0-2.10-2.10",81,20,FALSE,1666202568453,750,"q","q","Only if I get the answer right","You win money","A fixed time limit",5,"Female","no","no",0,0,0,0,0,0,0,0,1,0,0,0,0,0,1,0,0,0,0,1,0,0,2,2,0,0,1,1,1,2,2,2,2,0,1,2,1,1,0,0,0,1,1,0,0,2,3,1,3,1,2,3,4,3,2,3,0,3,3,4,4,0,1,"660.0999999046326","","q","","true","practice","10","down","up","0","q","1","0","1666202805069","","","","","","","",""
"","html-keyboard-response",41,235907,"0.0-2.11-0.11",81,20,FALSE,1666202568453,750,"q","q","Only if I get the answer right","You win money","A fixed time limit",5,"Female","no","no",0,0,0,0,0,0,0,0,1,0,0,0,0,0,1,0,0,0,0,1,0,0,2,2,0,0,1,1,1,2,2,2,2,0,1,2,1,1,0,0,0,1,1,0,0,2,3,1,3,1,2,3,4,3,2,3,0,3,3,4,4,0,1,"663.3999999761581","<br><br><br><br><table><tr><td><img src=static/images/oddball_up.png></td><td><img src=static/images/oddball_down.png></td><td><img src=static/images/oddball_up.png></td></tr></table>","87","1","","","","","","","","","","","","","","","","","",""
"","html-keyboard-response",42,238414,"0.0-2.11-1.11",81,20,FALSE,1666202568453,750,"q","q","Only if I get the answer right","You win money","A fixed time limit",5,"Female","no","no",0,0,0,0,0,0,0,0,1,0,0,0,0,0,1,0,0,0,0,1,0,0,2,2,0,0,1,1,1,2,2,2,2,0,1,2,1,1,0,0,0,1,1,0,0,2,3,1,3,1,2,3,4,3,2,3,0,3,3,4,4,0,1,"null","<div style=""font-size:75px;""><b>Correct</b></div>","null","","","","","","","","","","","","","","","","","","",""
"","html-keyboard-response",43,239419,"0.0-2.11-2.11",81,20,FALSE,1666202568453,750,"q","q","Only if I get the answer right","You win money","A fixed time limit",5,"Female","no","no",0,0,0,0,0,0,0,0,1,0,0,0,0,0,1,0,0,0,0,1,0,0,2,2,0,0,1,1,1,2,2,2,2,0,1,2,1,1,0,0,0,1,1,0,0,2,3,1,3,1,2,3,4,3,2,3,0,3,3,4,4,0,1,"663.3999999761581","","w","","true","practice","11","up","down","1","w","1","0","1666202809245","","","","","","","",""
"","html-keyboard-response",44,240027,"0.0-2.12-0.12",81,20,FALSE,1666202568453,750,"q","q","Only if I get the answer right","You win money","A fixed time limit",5,"Female","no","no",0,0,0,0,0,0,0,0,1,0,0,0,0,0,1,0,0,0,0,1,0,0,2,2,0,0,1,1,1,2,2,2,2,0,1,2,1,1,0,0,0,1,1,0,0,2,3,1,3,1,2,3,4,3,2,3,0,3,3,4,4,0,1,"607.6000000238419","<br><br><br><br><table><tr><td><img src=static/images/oddball_down.png></td><td><img src=static/images/oddball_up.png></td><td><img src=static/images/oddball_up.png></td></tr></table>","81","1","","","","","","","","","","","","","","","","","",""
"","html-keyboard-response",45,242538,"0.0-2.12-1.12",81,20,FALSE,1666202568453,750,"q","q","Only if I get the answer right","You win money","A fixed time limit",5,"Female","no","no",0,0,0,0,0,0,0,0,1,0,0,0,0,0,1,0,0,0,0,1,0,0,2,2,0,0,1,1,1,2,2,2,2,0,1,2,1,1,0,0,0,1,1,0,0,2,3,1,3,1,2,3,4,3,2,3,0,3,3,4,4,0,1,"null","<div style=""font-size:75px;""><b>Correct</b></div>","null","","","","","","","","","","","","","","","","","","",""
"","html-keyboard-response",46,243542,"0.0-2.12-2.12",81,20,FALSE,1666202568453,750,"q","q","Only if I get the answer right","You win money","A fixed time limit",5,"Female","no","no",0,0,0,0,0,0,0,0,1,0,0,0,0,0,1,0,0,0,0,1,0,0,2,2,0,0,1,1,1,2,2,2,2,0,1,2,1,1,0,0,0,1,1,0,0,2,3,1,3,1,2,3,4,3,2,3,0,3,3,4,4,0,1,"607.6000000238419","","q","","true","practice","12","up","down","0","q","1","0","1666202813368","","","","","","","",""
"","html-keyboard-response",47,244315,"0.0-2.13-0.13",81,20,FALSE,1666202568453,750,"q","q","Only if I get the answer right","You win money","A fixed time limit",5,"Female","no","no",0,0,0,0,0,0,0,0,1,0,0,0,0,0,1,0,0,0,0,1,0,0,2,2,0,0,1,1,1,2,2,2,2,0,1,2,1,1,0,0,0,1,1,0,0,2,3,1,3,1,2,3,4,3,2,3,0,3,3,4,4,0,1,"772.3999999761581","<br><br><br><br><table><tr><td><img src=static/images/oddball_up.png></td><td><img src=static/images/oddball_up.png></td><td><img src=static/images/oddball_down.png></td></tr></table>","69","1","","","","","","","","","","","","","","","","","",""
"","html-keyboard-response",48,246840,"0.0-2.13-1.13",81,20,FALSE,1666202568453,750,"q","q","Only if I get the answer right","You win money","A fixed time limit",5,"Female","no","no",0,0,0,0,0,0,0,0,1,0,0,0,0,0,1,0,0,0,0,1,0,0,2,2,0,0,1,1,1,2,2,2,2,0,1,2,1,1,0,0,0,1,1,0,0,2,3,1,3,1,2,3,4,3,2,3,0,3,3,4,4,0,1,"null","<div style=""font-size:75px;""><b>Correct</b></div>","null","","","","","","","","","","","","","","","","","","",""
"","html-keyboard-response",49,247847,"0.0-2.13-2.13",81,20,FALSE,1666202568453,750,"q","q","Only if I get the answer right","You win money","A fixed time limit",5,"Female","no","no",0,0,0,0,0,0,0,0,1,0,0,0,0,0,1,0,0,0,0,1,0,0,2,2,0,0,1,1,1,2,2,2,2,0,1,2,1,1,0,0,0,1,1,0,0,2,3,1,3,1,2,3,4,3,2,3,0,3,3,4,4,0,1,"772.3999999761581","","e","","true","practice","13","up","down","2","e","1","0","1666202817673","","","","","","","",""
"","html-keyboard-response",50,248487,"0.0-2.14-0.14",81,20,FALSE,1666202568453,750,"q","q","Only if I get the answer right","You win money","A fixed time limit",5,"Female","no","no",0,0,0,0,0,0,0,0,1,0,0,0,0,0,1,0,0,0,0,1,0,0,2,2,0,0,1,1,1,2,2,2,2,0,1,2,1,1,0,0,0,1,1,0,0,2,3,1,3,1,2,3,4,3,2,3,0,3,3,4,4,0,1,"639.0999999046326","<br><br><br><br><table><tr><td><img src=static/images/oddball_up.png></td><td><img src=static/images/oddball_down.png></td><td><img src=static/images/oddball_down.png></td></tr></table>","81","1","","","","","","","","","","","","","","","","","",""
"","html-keyboard-response",51,251031,"0.0-2.14-1.14",81,20,FALSE,1666202568453,750,"q","q","Only if I get the answer right","You win money","A fixed time limit",5,"Female","no","no",0,0,0,0,0,0,0,0,1,0,0,0,0,0,1,0,0,0,0,1,0,0,2,2,0,0,1,1,1,2,2,2,2,0,1,2,1,1,0,0,0,1,1,0,0,2,3,1,3,1,2,3,4,3,2,3,0,3,3,4,4,0,1,"null","<div style=""font-size:75px;""><b>Correct</b></div>","null","","","","","","","","","","","","","","","","","","",""
"","html-keyboard-response",52,252038,"0.0-2.14-2.14",81,20,FALSE,1666202568453,750,"q","q","Only if I get the answer right","You win money","A fixed time limit",5,"Female","no","no",0,0,0,0,0,0,0,0,1,0,0,0,0,0,1,0,0,0,0,1,0,0,2,2,0,0,1,1,1,2,2,2,2,0,1,2,1,1,0,0,0,1,1,0,0,2,3,1,3,1,2,3,4,3,2,3,0,3,3,4,4,0,1,"639.0999999046326","","q","","true","practice","14","down","up","0","q","1","0","1666202821865","","","","","","","",""
"","html-keyboard-response",53,252647,"0.0-2.15-0.15",81,20,FALSE,1666202568453,750,"q","q","Only if I get the answer right","You win money","A fixed time limit",5,"Female","no","no",0,0,0,0,0,0,0,0,1,0,0,0,0,0,1,0,0,0,0,1,0,0,2,2,0,0,1,1,1,2,2,2,2,0,1,2,1,1,0,0,0,1,1,0,0,2,3,1,3,1,2,3,4,3,2,3,0,3,3,4,4,0,1,"607.6999999284744","<br><br><br><br><table><tr><td><img src=static/images/oddball_up.png></td><td><img src=static/images/oddball_down.png></td><td><img src=static/images/oddball_down.png></td></tr></table>","81","1","","","","","","","","","","","","","","","","","",""
"","html-keyboard-response",54,255156,"0.0-2.15-1.15",81,20,FALSE,1666202568453,750,"q","q","Only if I get the answer right","You win money","A fixed time limit",5,"Female","no","no",0,0,0,0,0,0,0,0,1,0,0,0,0,0,1,0,0,0,0,1,0,0,2,2,0,0,1,1,1,2,2,2,2,0,1,2,1,1,0,0,0,1,1,0,0,2,3,1,3,1,2,3,4,3,2,3,0,3,3,4,4,0,1,"null","<div style=""font-size:75px;""><b>Correct</b></div>","null","","","","","","","","","","","","","","","","","","",""
"","html-keyboard-response",55,256162,"0.0-2.15-2.15",81,20,FALSE,1666202568453,750,"q","q","Only if I get the answer right","You win money","A fixed time limit",5,"Female","no","no",0,0,0,0,0,0,0,0,1,0,0,0,0,0,1,0,0,0,0,1,0,0,2,2,0,0,1,1,1,2,2,2,2,0,1,2,1,1,0,0,0,1,1,0,0,2,3,1,3,1,2,3,4,3,2,3,0,3,3,4,4,0,1,"607.6999999284744","","q","","true","practice","15","down","up","0","q","1","0","1666202825989","","","","","","","",""
"","html-keyboard-response",56,256911,"0.0-2.16-0.16",81,20,FALSE,1666202568453,750,"q","q","Only if I get the answer right","You win money","A fixed time limit",5,"Female","no","no",0,0,0,0,0,0,0,0,1,0,0,0,0,0,1,0,0,0,0,1,0,0,2,2,0,0,1,1,1,2,2,2,2,0,1,2,1,1,0,0,0,1,1,0,0,2,3,1,3,1,2,3,4,3,2,3,0,3,3,4,4,0,1,"747.6999999284744","<br><br><br><br><table><tr><td><img src=static/images/oddball_up.png></td><td><img src=static/images/oddball_down.png></td><td><img src=static/images/oddball_down.png></td></tr></table>","81","1","","","","","","","","","","","","","","","","","",""
"","html-keyboard-response",57,259417,"0.0-2.16-1.16",81,20,FALSE,1666202568453,750,"q","q","Only if I get the answer right","You win money","A fixed time limit",5,"Female","no","no",0,0,0,0,0,0,0,0,1,0,0,0,0,0,1,0,0,0,0,1,0,0,2,2,0,0,1,1,1,2,2,2,2,0,1,2,1,1,0,0,0,1,1,0,0,2,3,1,3,1,2,3,4,3,2,3,0,3,3,4,4,0,1,"null","<div style=""font-size:75px;""><b>Correct</b></div>","null","","","","","","","","","","","","","","","","","","",""
"","html-keyboard-response",58,260420,"0.0-2.16-2.16",81,20,FALSE,1666202568453,750,"q","q","Only if I get the answer right","You win money","A fixed time limit",5,"Female","no","no",0,0,0,0,0,0,0,0,1,0,0,0,0,0,1,0,0,0,0,1,0,0,2,2,0,0,1,1,1,2,2,2,2,0,1,2,1,1,0,0,0,1,1,0,0,2,3,1,3,1,2,3,4,3,2,3,0,3,3,4,4,0,1,"747.6999999284744","","q","","true","practice","16","down","up","0","q","1","0","1666202830246","","","","","","","",""
"","html-keyboard-response",59,261559,"0.0-2.17-0.17",81,20,FALSE,1666202568453,750,"q","q","Only if I get the answer right","You win money","A fixed time limit",5,"Female","no","no",0,0,0,0,0,0,0,0,1,0,0,0,0,0,1,0,0,0,0,1,0,0,2,2,0,0,1,1,1,2,2,2,2,0,1,2,1,1,0,0,0,1,1,0,0,2,3,1,3,1,2,3,4,3,2,3,0,3,3,4,4,0,1,"1138.2999999523163","<br><br><br><br><table><tr><td><img src=static/images/oddball_down.png></td><td><img src=static/images/oddball_up.png></td><td><img src=static/images/oddball_down.png></td></tr></table>","87","1","","","","","","","","","","","","","","","","","",""
"","html-keyboard-response",60,264072,"0.0-2.17-1.17",81,20,FALSE,1666202568453,750,"q","q","Only if I get the answer right","You win money","A fixed time limit",5,"Female","no","no",0,0,0,0,0,0,0,0,1,0,0,0,0,0,1,0,0,0,0,1,0,0,2,2,0,0,1,1,1,2,2,2,2,0,1,2,1,1,0,0,0,1,1,0,0,2,3,1,3,1,2,3,4,3,2,3,0,3,3,4,4,0,1,"null","<div style=""font-size:75px;""><b>Correct</b></div>","null","","","","","","","","","","","","","","","","","","",""
"","html-keyboard-response",61,265078,"0.0-2.17-2.17",81,20,FALSE,1666202568453,750,"q","q","Only if I get the answer right","You win money","A fixed time limit",5,"Female","no","no",0,0,0,0,0,0,0,0,1,0,0,0,0,0,1,0,0,0,0,1,0,0,2,2,0,0,1,1,1,2,2,2,2,0,1,2,1,1,0,0,0,1,1,0,0,2,3,1,3,1,2,3,4,3,2,3,0,3,3,4,4,0,1,"1138.2999999523163","","w","","true","practice","17","down","up","1","w","1","0","1666202834904","","","","","","","",""
"","html-keyboard-response",62,265711,"0.0-2.18-0.18",81,20,FALSE,1666202568453,750,"q","q","Only if I get the answer right","You win money","A fixed time limit",5,"Female","no","no",0,0,0,0,0,0,0,0,1,0,0,0,0,0,1,0,0,0,0,1,0,0,2,2,0,0,1,1,1,2,2,2,2,0,1,2,1,1,0,0,0,1,1,0,0,2,3,1,3,1,2,3,4,3,2,3,0,3,3,4,4,0,1,"632.2999999523163","<br><br><br><br><table><tr><td><img src=static/images/oddball_up.png></td><td><img src=static/images/oddball_down.png></td><td><img src=static/images/oddball_down.png></td></tr></table>","81","1","","","","","","","","","","","","","","","","","",""
"","html-keyboard-response",63,268215,"0.0-2.18-1.18",81,20,FALSE,1666202568453,750,"q","q","Only if I get the answer right","You win money","A fixed time limit",5,"Female","no","no",0,0,0,0,0,0,0,0,1,0,0,0,0,0,1,0,0,0,0,1,0,0,2,2,0,0,1,1,1,2,2,2,2,0,1,2,1,1,0,0,0,1,1,0,0,2,3,1,3,1,2,3,4,3,2,3,0,3,3,4,4,0,1,"null","<div style=""font-size:75px;""><b>Correct</b></div>","null","","","","","","","","","","","","","","","","","","",""
"","html-keyboard-response",64,269221,"0.0-2.18-2.18",81,20,FALSE,1666202568453,750,"q","q","Only if I get the answer right","You win money","A fixed time limit",5,"Female","no","no",0,0,0,0,0,0,0,0,1,0,0,0,0,0,1,0,0,0,0,1,0,0,2,2,0,0,1,1,1,2,2,2,2,0,1,2,1,1,0,0,0,1,1,0,0,2,3,1,3,1,2,3,4,3,2,3,0,3,3,4,4,0,1,"632.2999999523163","","q","","true","practice","18","down","up","0","q","1","0","1666202839047","","","","","","","",""
"","html-keyboard-response",65,269879,"0.0-2.19-0.19",81,20,FALSE,1666202568453,750,"q","q","Only if I get the answer right","You win money","A fixed time limit",5,"Female","no","no",0,0,0,0,0,0,0,0,1,0,0,0,0,0,1,0,0,0,0,1,0,0,2,2,0,0,1,1,1,2,2,2,2,0,1,2,1,1,0,0,0,1,1,0,0,2,3,1,3,1,2,3,4,3,2,3,0,3,3,4,4,0,1,"657.6000000238419","<br><br><br><br><table><tr><td><img src=static/images/oddball_down.png></td><td><img src=static/images/oddball_up.png></td><td><img src=static/images/oddball_up.png></td></tr></table>","81","1","","","","","","","","","","","","","","","","","",""
"","html-keyboard-response",66,272389,"0.0-2.19-1.19",81,20,FALSE,1666202568453,750,"q","q","Only if I get the answer right","You win money","A fixed time limit",5,"Female","no","no",0,0,0,0,0,0,0,0,1,0,0,0,0,0,1,0,0,0,0,1,0,0,2,2,0,0,1,1,1,2,2,2,2,0,1,2,1,1,0,0,0,1,1,0,0,2,3,1,3,1,2,3,4,3,2,3,0,3,3,4,4,0,1,"null","<div style=""font-size:75px;""><b>Correct</b></div>","null","","","","","","","","","","","","","","","","","","",""
"","html-keyboard-response",67,273393,"0.0-2.19-2.19",81,20,FALSE,1666202568453,750,"q","q","Only if I get the answer right","You win money","A fixed time limit",5,"Female","no","no",0,0,0,0,0,0,0,0,1,0,0,0,0,0,1,0,0,0,0,1,0,0,2,2,0,0,1,1,1,2,2,2,2,0,1,2,1,1,0,0,0,1,1,0,0,2,3,1,3,1,2,3,4,3,2,3,0,3,3,4,4,0,1,"657.6000000238419","","q","","true","practice","19","up","down","0","q","1","0","1666202843219","","","","","","","",""
"","image-keyboard-response",68,279822,"0.0-3.0-0.0",81,20,FALSE,1666202568453,750,"q","q","Only if I get the answer right","You win money","A fixed time limit",5,"Female","no","no",0,0,0,0,0,0,0,0,1,0,0,0,0,0,1,0,0,0,0,1,0,0,2,2,0,0,1,1,1,2,2,2,2,0,1,2,1,1,0,0,0,1,1,0,0,2,3,1,3,1,2,3,4,3,2,3,0,3,3,4,4,0,1,"6428.600000023842","static/images/instructions/Slide8.png","39","","","","","","","","","","","","","","","","","","",""
"","image-keyboard-response",69,294967,"0.0-3.1-0.1",81,20,FALSE,1666202568453,750,"q","q","Only if I get the answer right","You win money","A fixed time limit",5,"Female","no","no",0,0,0,0,0,0,0,0,1,0,0,0,0,0,1,0,0,0,0,1,0,0,2,2,0,0,1,1,1,2,2,2,2,0,1,2,1,1,0,0,0,1,1,0,0,2,3,1,3,1,2,3,4,3,2,3,0,3,3,4,4,0,1,"15060","static/images/instructions/Slide9.png","39","","","","","","","","","","","","","","","","","","",""
"","image-keyboard-response",70,302519,"0.0-3.2-0.2",81,20,FALSE,1666202568453,750,"q","q","Only if I get the answer right","You win money","A fixed time limit",5,"Female","no","no",0,0,0,0,0,0,0,0,1,0,0,0,0,0,1,0,0,0,0,1,0,0,2,2,0,0,1,1,1,2,2,2,2,0,1,2,1,1,0,0,0,1,1,0,0,2,3,1,3,1,2,3,4,3,2,3,0,3,3,4,4,0,1,"7551.199999928474","static/images/instructions/Slide10.png","39","","","","","","","","","","","","","","","","","","",""
"","image-keyboard-response",71,314783,"0.0-3.3-0.3",81,20,FALSE,1666202568453,750,"q","q","Only if I get the answer right","You win money","A fixed time limit",5,"Female","no","no",0,0,0,0,0,0,0,0,1,0,0,0,0,0,1,0,0,0,0,1,0,0,2,2,0,0,1,1,1,2,2,2,2,0,1,2,1,1,0,0,0,1,1,0,0,2,3,1,3,1,2,3,4,3,2,3,0,3,3,4,4,0,1,"12271.200000047684","static/images/instructions/Slide11.png","39","","","","","","","","","","","","","","","","","","",""
"","image-keyboard-response",72,317663,"0.0-3.4-0.4",81,20,FALSE,1666202568453,750,"q","q","Only if I get the answer right","You win money","A fixed time limit",5,"Female","no","no",0,0,0,0,0,0,0,0,1,0,0,0,0,0,1,0,0,0,0,1,0,0,2,2,0,0,1,1,1,2,2,2,2,0,1,2,1,1,0,0,0,1,1,0,0,2,3,1,3,1,2,3,4,3,2,3,0,3,3,4,4,0,1,"2879.3000000715256","static/images/instructions/Slide12.png","39","","","","","","","","","","","","","","","","","","",""
"","image-keyboard-response",73,328319,"0.0-3.5-0.5",81,20,FALSE,1666202568453,750,"q","q","Only if I get the answer right","You win money","A fixed time limit",5,"Female","no","no",0,0,0,0,0,0,0,0,1,0,0,0,0,0,1,0,0,0,0,1,0,0,2,2,0,0,1,1,1,2,2,2,2,0,1,2,1,1,0,0,0,1,1,0,0,2,3,1,3,1,2,3,4,3,2,3,0,3,3,4,4,0,1,"10655.400000095367","static/images/instructions/Slide13.png","39","","","","","","","","","","","","","","","","","","",""
"","image-keyboard-response",74,338647,"0.0-3.6-0.6",81,20,FALSE,1666202568453,750,"q","q","Only if I get the answer right","You win money","A fixed time limit",5,"Female","no","no",0,0,0,0,0,0,0,0,1,0,0,0,0,0,1,0,0,0,0,1,0,0,2,2,0,0,1,1,1,2,2,2,2,0,1,2,1,1,0,0,0,1,1,0,0,2,3,1,3,1,2,3,4,3,2,3,0,3,3,4,4,0,1,"10327.300000071526","static/images/instructions/Slide14.png","39","","","","","","","","","","","","","","","","","","",""
"","image-keyboard-response",75,348223,"0.0-3.7-0.7",81,20,FALSE,1666202568453,750,"q","q","Only if I get the answer right","You win money","A fixed time limit",5,"Female","no","no",0,0,0,0,0,0,0,0,1,0,0,0,0,0,1,0,0,0,0,1,0,0,2,2,0,0,1,1,1,2,2,2,2,0,1,2,1,1,0,0,0,1,1,0,0,2,3,1,3,1,2,3,4,3,2,3,0,3,3,4,4,0,1,"9575.400000095367","static/images/instructions/Slide15.png","39","","","","","","","","","","","","","","","","","","",""
"","image-keyboard-response",76,353079,"0.0-3.8-0.8",81,20,FALSE,1666202568453,750,"q","q","Only if I get the answer right","You win money","A fixed time limit",5,"Female","no","no",0,0,0,0,0,0,0,0,1,0,0,0,0,0,1,0,0,0,0,1,0,0,2,2,0,0,1,1,1,2,2,2,2,0,1,2,1,1,0,0,0,1,1,0,0,2,3,1,3,1,2,3,4,3,2,3,0,3,3,4,4,0,1,"4855.399999976158","static/images/instructions/Slide16.png","39","","","","","","","","","","","","","","","","","","",""
"","image-keyboard-response",77,357391,"0.0-3.9-0.9",81,20,FALSE,1666202568453,750,"q","q","Only if I get the answer right","You win money","A fixed time limit",5,"Female","no","no",0,0,0,0,0,0,0,0,1,0,0,0,0,0,1,0,0,0,0,1,0,0,2,2,0,0,1,1,1,2,2,2,2,0,1,2,1,1,0,0,0,1,1,0,0,2,3,1,3,1,2,3,4,3,2,3,0,3,3,4,4,0,1,"4311.399999976158","static/images/instructions/Slide17.png","39","","","","","","","","","","","","","","","","","","",""
"","survey-multi-choice",78,400200,"0.0-4.0",81,20,FALSE,1666202568453,750,"q","q","Only if I get the answer right","You win money","A fixed time limit",5,"Female","no","no",0,0,0,0,0,0,0,0,1,0,0,0,0,0,1,0,0,0,0,1,0,0,2,2,0,0,1,1,1,2,2,2,2,0,1,2,1,1,0,0,0,1,1,0,0,2,3,1,3,1,2,3,4,3,2,3,0,3,3,4,4,0,1,"42639.299999952316","","","","","","","","","","","","","","{""q1"":""q"",""q2"":""q"",""q3"":""Only if I get the answer right"",""q4"":""You win money"",""q5"":""A fixed time limit""}","[3,4,1,2,0]","","","","","",""
"","image-keyboard-response",79,407918,"0.0-5.0-0.0",81,20,FALSE,1666202568453,750,"q","q","Only if I get the answer right","You win money","A fixed time limit",5,"Female","no","no",0,0,0,0,0,0,0,0,1,0,0,0,0,0,1,0,0,0,0,1,0,0,2,2,0,0,1,1,1,2,2,2,2,0,1,2,1,1,0,0,0,1,1,0,0,2,3,1,3,1,2,3,4,3,2,3,0,3,3,4,4,0,1,"7696.200000047684","static/images/instructions/Slide18.png","39","","","","","","","","","","","","","","","","","","",""
"","html-keyboard-response",80,408931,"0.0-6.0-0.0-0.0",81,20,FALSE,1666202568453,750,"q","q","Only if I get the answer right","You win money","A fixed time limit",5,"Female","no","no",0,0,0,0,0,0,0,0,1,0,0,0,0,0,1,0,0,0,0,1,0,0,2,2,0,0,1,1,1,2,2,2,2,0,1,2,1,1,0,0,0,1,1,0,0,2,3,1,3,1,2,3,4,3,2,3,0,3,3,4,4,0,1,"null","<div style=""font-size:75px;"">3</div>","null","","","","","","","","","","","","","","","","","","",""
"","html-keyboard-response",81,409936,"0.0-6.0-0.1-0.1",81,20,FALSE,1666202568453,750,"q","q","Only if I get the answer right","You win money","A fixed time limit",5,"Female","no","no",0,0,0,0,0,0,0,0,1,0,0,0,0,0,1,0,0,0,0,1,0,0,2,2,0,0,1,1,1,2,2,2,2,0,1,2,1,1,0,0,0,1,1,0,0,2,3,1,3,1,2,3,4,3,2,3,0,3,3,4,4,0,1,"null","<div style=""font-size:75px;"">2</div>","null","","","","","","","","","","","","","","","","","","",""
"","html-keyboard-response",82,410951,"0.0-6.0-0.2-0.2",81,20,FALSE,1666202568453,750,"q","q","Only if I get the answer right","You win money","A fixed time limit",5,"Female","no","no",0,0,0,0,0,0,0,0,1,0,0,0,0,0,1,0,0,0,0,1,0,0,2,2,0,0,1,1,1,2,2,2,2,0,1,2,1,1,0,0,0,1,1,0,0,2,3,1,3,1,2,3,4,3,2,3,0,3,3,4,4,0,1,"null","<div style=""font-size:75px;"">1</div>","null","","","","","","","","","","","","","","","","","","",""
"","html-keyboard-response",83,411788,"0.0-6.0-1.0-0.0",81,20,FALSE,1666202568453,750,"q","q","Only if I get the answer right","You win money","A fixed time limit",5,"Female","no","no",0,0,0,0,0,0,0,0,1,0,0,0,0,0,1,0,0,0,0,1,0,0,2,2,0,0,1,1,1,2,2,2,2,0,1,2,1,1,0,0,0,1,1,0,0,2,3,1,3,1,2,3,4,3,2,3,0,3,3,4,4,0,1,"null","<br><br><br><br><table><tr><td><img src=static/images/oddball_up.png></td><td><img src=static/images/oddball_down.png></td><td><img src=static/images/oddball_down.png></td></tr></table>","null","","","","","","","","","","","","","","","","","","",""
"","html-keyboard-response",84,411917,"0.0-6.0-1.0-1.0",81,20,FALSE,1666202568453,750,"q","q","Only if I get the answer right","You win money","A fixed time limit",5,"Female","no","no",0,0,0,0,0,0,0,0,1,0,0,0,0,0,1,0,0,0,0,1,0,0,2,2,0,0,1,1,1,2,2,2,2,0,1,2,1,1,0,0,0,1,1,0,0,2,3,1,3,1,2,3,4,3,2,3,0,3,3,4,4,0,1,"null","","null","","true","0","0","down","up","0","q","0","0","1666202981743","","","true","60","0","0","0.2","true"
"","html-keyboard-response",85,412674,"0.0-6.0-1.1-0.1",81,20,FALSE,1666202568453,750,"q","q","Only if I get the answer right","You win money","A fixed time limit",5,"Female","no","no",0,0,0,0,0,0,0,0,1,0,0,0,0,0,1,0,0,0,0,1,0,0,2,2,0,0,1,1,1,2,2,2,2,0,1,2,1,1,0,0,0,1,1,0,0,2,3,1,3,1,2,3,4,3,2,3,0,3,3,4,4,0,1,"null","<br><br><br><br><table><tr><td><img src=static/images/oddball_down.png></td><td><img src=static/images/oddball_up.png></td><td><img src=static/images/oddball_up.png></td></tr></table>","null","","","","","","","","","","","","","","","","","","",""
"","html-keyboard-response",86,412790,"0.0-6.0-1.1-1.1",81,20,FALSE,1666202568453,750,"q","q","Only if I get the answer right","You win money","A fixed time limit",5,"Female","no","no",0,0,0,0,0,0,0,0,1,0,0,0,0,0,1,0,0,0,0,1,0,0,2,2,0,0,1,1,1,2,2,2,2,0,1,2,1,1,0,0,0,1,1,0,0,2,3,1,3,1,2,3,4,3,2,3,0,3,3,4,4,0,1,"null","","null","","true","0","1","up","down","0","q","0","0","1666202982616","","","true","60","1","0","0.2","true"
"","html-keyboard-response",87,412886,"0.0-6.0-1.2-0.2",81,20,FALSE,1666202568453,750,"q","q","Only if I get the answer right","You win money","A fixed time limit",5,"Female","no","no",0,0,0,0,0,0,0,0,1,0,0,0,0,0,1,0,0,0,0,1,0,0,2,2,0,0,1,1,1,2,2,2,2,0,1,2,1,1,0,0,0,1,1,0,0,2,3,1,3,1,2,3,4,3,2,3,0,3,3,4,4,0,1,"95.5","<br><br><br><br><table><tr><td><img src=static/images/oddball_up.png></td><td><img src=static/images/oddball_up.png></td><td><img src=static/images/oddball_down.png></td></tr></table>","81","1","","","","","","","","","","","","","","","","","",""
"","html-keyboard-response",88,413081.560954705,"0.0-6.0-1.2-1.2",81,20,FALSE,1666202568453,750,"q","q","Only if I get the answer right","You win money","A fixed time limit",5,"Female","no","no",0,0,0,0,0,0,0,0,1,0,0,0,0,0,1,0,0,0,0,1,0,0,2,2,0,0,1,1,1,2,2,2,2,0,1,2,1,1,0,0,0,1,1,0,0,2,3,1,3,1,2,3,4,3,2,3,0,3,3,4,4,0,1,"190.061","","q","","true","0","2","up","down","2","e","0","0","1666202982907.56","","","true","60","2","0","0.2","false"
"","html-keyboard-response",89,413678,"0.0-6.0-1.3-0.3",81,20,FALSE,1666202568453,750,"q","q","Only if I get the answer right","You win money","A fixed time limit",5,"Female","no","no",0,0,0,0,0,0,0,0,1,0,0,0,0,0,1,0,0,0,0,1,0,0,2,2,0,0,1,1,1,2,2,2,2,0,1,2,1,1,0,0,0,1,1,0,0,2,3,1,3,1,2,3,4,3,2,3,0,3,3,4,4,0,1,"690.5","<br><br><br><br><table><tr><td><img src=static/images/oddball_down.png></td><td><img src=static/images/oddball_up.png></td><td><img src=static/images/oddball_up.png></td></tr></table>","81","1","","","","","","","","","","","","","","","","","",""
"","html-keyboard-response",90,413822.223079628,"0.0-6.0-1.3-1.3",81,20,FALSE,1666202568453,750,"q","q","Only if I get the answer right","You win money","A fixed time limit",5,"Female","no","no",0,0,0,0,0,0,0,0,1,0,0,0,0,0,1,0,0,0,0,1,0,0,2,2,0,0,1,1,1,2,2,2,2,0,1,2,1,1,0,0,0,1,1,0,0,2,3,1,3,1,2,3,4,3,2,3,0,3,3,4,4,0,1,"729.72308","","q","","true","0","3","up","down","0","q","1","0","1666202983648.22","","","true","60","3","0","0.2","false"
"","html-keyboard-response",91,414286,"0.0-6.0-1.4-0.4",81,20,FALSE,1666202568453,750,"q","q","Only if I get the answer right","You win money","A fixed time limit",5,"Female","no","no",0,0,0,0,0,0,0,0,1,0,0,0,0,0,1,0,0,0,0,1,0,0,2,2,0,0,1,1,1,2,2,2,2,0,1,2,1,1,0,0,0,1,1,0,0,2,3,1,3,1,2,3,4,3,2,3,0,3,3,4,4,0,1,"503.2000000476837","<br><br><br><br><table><tr><td><img src=static/images/oddball_down.png></td><td><img src=static/images/oddball_up.png></td><td><img src=static/images/oddball_down.png></td></tr></table>","69","1","","","","","","","","","","","","","","","","","",""
"","html-keyboard-response",92,414372.795798837,"0.0-6.0-1.4-1.4",81,20,FALSE,1666202568453,750,"q","q","Only if I get the answer right","You win money","A fixed time limit",5,"Female","no","no",0,0,0,0,0,0,0,0,1,0,0,0,0,0,1,0,0,0,0,1,0,0,2,2,0,0,1,1,1,2,2,2,2,0,1,2,1,1,0,0,0,1,1,0,0,2,3,1,3,1,2,3,4,3,2,3,0,3,3,4,4,0,1,"472.995798884808","","e","","true","0","4","down","up","1","w","0","0","1666202984198.8","","","true","60","4","0.0166666666666667","0.2","false"
"","html-keyboard-response",93,415110,"0.0-6.0-1.5-0.5",81,20,FALSE,1666202568453,750,"q","q","Only if I get the answer right","You win money","A fixed time limit",5,"Female","no","no",0,0,0,0,0,0,0,0,1,0,0,0,0,0,1,0,0,0,0,1,0,0,2,2,0,0,1,1,1,2,2,2,2,0,1,2,1,1,0,0,0,1,1,0,0,2,3,1,3,1,2,3,4,3,2,3,0,3,3,4,4,0,1,"674.8999999761581","<br><br><br><br><table><tr><td><img src=static/images/oddball_up.png></td><td><img src=static/images/oddball_up.png></td><td><img src=static/images/oddball_down.png></td></tr></table>","69","1","","","","","","","","","","","","","","","","","",""
"","html-keyboard-response",94,415214.813749067,"0.0-6.0-1.5-1.5",81,20,FALSE,1666202568453,750,"q","q","Only if I get the answer right","You win money","A fixed time limit",5,"Female","no","no",0,0,0,0,0,0,0,0,1,0,0,0,0,0,1,0,0,0,0,1,0,0,2,2,0,0,1,1,1,2,2,2,2,0,1,2,1,1,0,0,0,1,1,0,0,2,3,1,3,1,2,3,4,3,2,3,0,3,3,4,4,0,1,"666.713749043534","","e","","true","0","5","up","down","2","e","1","0","1666202985040.81","","","true","60","5","0.0166666666666667","0.2","false"
"","html-keyboard-response",95,415978,"0.0-6.0-1.6-0.6",81,20,FALSE,1666202568453,750,"q","q","Only if I get the answer right","You win money","A fixed time limit",5,"Female","no","no",0,0,0,0,0,0,0,0,1,0,0,0,0,0,1,0,0,0,0,1,0,0,2,2,0,0,1,1,1,2,2,2,2,0,1,2,1,1,0,0,0,1,1,0,0,2,3,1,3,1,2,3,4,3,2,3,0,3,3,4,4,0,1,"null","<br><br><br><br><table><tr><td><img src=static/images/oddball_down.png></td><td><img src=static/images/oddball_up.png></td><td><img src=static/images/oddball_down.png></td></tr></table>","null","","","","","","","","","","","","","","","","","","",""
"","html-keyboard-response",96,416095,"0.0-6.0-1.6-1.6",81,20,FALSE,1666202568453,750,"q","q","Only if I get the answer right","You win money","A fixed time limit",5,"Female","no","no",0,0,0,0,0,0,0,0,1,0,0,0,0,0,1,0,0,0,0,1,0,0,2,2,0,0,1,1,1,2,2,2,2,0,1,2,1,1,0,0,0,1,1,0,0,2,3,1,3,1,2,3,4,3,2,3,0,3,3,4,4,0,1,"null","","null","","true","0","6","down","up","1","w","0","0","1666202985921","","","true","60","6","0.0333333333333333","0.2","true"
"","html-keyboard-response",97,416185,"0.0-6.0-1.7-0.7",81,20,FALSE,1666202568453,750,"q","q","Only if I get the answer right","You win money","A fixed time limit",5,"Female","no","no",0,0,0,0,0,0,0,0,1,0,0,0,0,0,1,0,0,0,0,1,0,0,2,2,0,0,1,1,1,2,2,2,2,0,1,2,1,1,0,0,0,1,1,0,0,2,3,1,3,1,2,3,4,3,2,3,0,3,3,4,4,0,1,"86.19999992847443","<br><br><br><br><table><tr><td><img src=static/images/oddball_down.png></td><td><img src=static/images/oddball_down.png></td><td><img src=static/images/oddball_up.png></td></tr></table>","87","1","","","","","","","","","","","","","","","","","",""
"","html-keyboard-response",98,416312.737603048,"0.0-6.0-1.7-1.7",81,20,FALSE,1666202568453,750,"q","q","Only if I get the answer right","You win money","A fixed time limit",5,"Female","no","no",0,0,0,0,0,0,0,0,1,0,0,0,0,0,1,0,0,0,0,1,0,0,2,2,0,0,1,1,1,2,2,2,2,0,1,2,1,1,0,0,0,1,1,0,0,2,3,1,3,1,2,3,4,3,2,3,0,3,3,4,4,0,1,"107.937602976492","","w","","true","0","7","down","up","2","e","0","0","1666202986138.74","","","true","60","7","0.0333333333333333","0.2","false"
"","html-keyboard-response",99,416846,"0.0-6.0-1.8-0.8",81,20,FALSE,1666202568453,750,"q","q","Only if I get the answer right","You win money","A fixed time limit",5,"Female","no","no",0,0,0,0,0,0,0,0,1,0,0,0,0,0,1,0,0,0,0,1,0,0,2,2,0,0,1,1,1,2,2,2,2,0,1,2,1,1,0,0,0,1,1,0,0,2,3,1,3,1,2,3,4,3,2,3,0,3,3,4,4,0,1,"554.3999999761581","<br><br><br><br><table><tr><td><img src=static/images/oddball_down.png></td><td><img src=static/images/oddball_down.png></td><td><img src=static/images/oddball_up.png></td></tr></table>","69","1","","","","","","","","","","","","","","","","","",""
"","html-keyboard-response",100,417058.280672085,"0.0-6.0-1.8-1.8",81,20,FALSE,1666202568453,750,"q","q","Only if I get the answer right","You win money","A fixed time limit",5,"Female","no","no",0,0,0,0,0,0,0,0,1,0,0,0,0,0,1,0,0,0,0,1,0,0,2,2,0,0,1,1,1,2,2,2,2,0,1,2,1,1,0,0,0,1,1,0,0,2,3,1,3,1,2,3,4,3,2,3,0,3,3,4,4,0,1,"652.680672061542","","e","","true","0","8","down","up","2","e","1","0","1666202986884.28","","","true","60","8","0.0333333333333333","0.2","false"
"","html-keyboard-response",101,417574,"0.0-6.0-1.9-0.9",81,20,FALSE,1666202568453,750,"q","q","Only if I get the answer right","You win money","A fixed time limit",5,"Female","no","no",0,0,0,0,0,0,0,0,1,0,0,0,0,0,1,0,0,0,0,1,0,0,2,2,0,0,1,1,1,2,2,2,2,0,1,2,1,1,0,0,0,1,1,0,0,2,3,1,3,1,2,3,4,3,2,3,0,3,3,4,4,0,1,"614.2000000476837","<br><br><br><br><table><tr><td><img src=static/images/oddball_down.png></td><td><img src=static/images/oddball_down.png></td><td><img src=static/images/oddball_up.png></td></tr></table>","69","1","","","","","","","","","","","","","","","","","",""
"","html-keyboard-response",102,417592.203374767,"0.0-6.0-1.9-1.9",81,20,FALSE,1666202568453,750,"q","q","Only if I get the answer right","You win money","A fixed time limit",5,"Female","no","no",0,0,0,0,0,0,0,0,1,0,0,0,0,0,1,0,0,0,0,1,0,0,2,2,0,0,1,1,1,2,2,2,2,0,1,2,1,1,0,0,0,1,1,0,0,2,3,1,3,1,2,3,4,3,2,3,0,3,3,4,4,0,1,"529.40337481467","","e","","true","0","9","down","up","2","e","1","0","1666202987418.2","","","true","60","9","0.05","0.2","false"
"","html-keyboard-response",103,418433,"0.0-6.0-1.10-0.10",81,20,FALSE,1666202568453,750,"q","q","Only if I get the answer right","You win money","A fixed time limit",5,"Female","no","no",0,0,0,0,0,0,0,0,1,0,0,0,0,0,1,0,0,0,0,1,0,0,2,2,0,0,1,1,1,2,2,2,2,0,1,2,1,1,0,0,0,1,1,0,0,2,3,1,3,1,2,3,4,3,2,3,0,3,3,4,4,0,1,"null","<br><br><br><br><table><tr><td><img src=static/images/oddball_up.png></td><td><img src=static/images/oddball_down.png></td><td><img src=static/images/oddball_up.png></td></tr></table>","null","","","","","","","","","","","","","","","","","","",""
"","html-keyboard-response",104,418547,"0.0-6.0-1.10-1.10",81,20,FALSE,1666202568453,750,"q","q","Only if I get the answer right","You win money","A fixed time limit",5,"Female","no","no",0,0,0,0,0,0,0,0,1,0,0,0,0,0,1,0,0,0,0,1,0,0,2,2,0,0,1,1,1,2,2,2,2,0,1,2,1,1,0,0,0,1,1,0,0,2,3,1,3,1,2,3,4,3,2,3,0,3,3,4,4,0,1,"null","","null","","true","0","10","up","down","1","w","0","0","1666202988373","","","true","60","10","0.0666666666666667","0.2","true"
"","html-keyboard-response",105,419278,"0.0-6.0-1.11-0.11",81,20,FALSE,1666202568453,750,"q","q","Only if I get the answer right","You win money","A fixed time limit",5,"Female","no","no",0,0,0,0,0,0,0,0,1,0,0,0,0,0,1,0,0,0,0,1,0,0,2,2,0,0,1,1,1,2,2,2,2,0,1,2,1,1,0,0,0,1,1,0,0,2,3,1,3,1,2,3,4,3,2,3,0,3,3,4,4,0,1,"731.1000000238419","<br><br><br><br><table><tr><td><img src=static/images/oddball_up.png></td><td><img src=static/images/oddball_down.png></td><td><img src=static/images/oddball_down.png></td></tr></table>","81","1","","","","","","","","","","","","","","","","","",""
"","html-keyboard-response",106,419377.727286863,"0.0-6.0-1.11-1.11",81,20,FALSE,1666202568453,750,"q","q","Only if I get the answer right","You win money","A fixed time limit",5,"Female","no","no",0,0,0,0,0,0,0,0,1,0,0,0,0,0,1,0,0,0,0,1,0,0,2,2,0,0,1,1,1,2,2,2,2,0,1,2,1,1,0,0,0,1,1,0,0,2,3,1,3,1,2,3,4,3,2,3,0,3,3,4,4,0,1,"728.827286886983","","q","","true","0","11","down","up","0","q","1","0","1666202989203.73","","","true","60","11","0.0666666666666667","0.2","false"
"","html-keyboard-response",107,420006,"0.0-6.0-1.12-0.12",81,20,FALSE,1666202568453,750,"q","q","Only if I get the answer right","You win money","A fixed time limit",5,"Female","no","no",0,0,0,0,0,0,0,0,1,0,0,0,0,0,1,0,0,0,0,1,0,0,2,2,0,0,1,1,1,2,2,2,2,0,1,2,1,1,0,0,0,1,1,0,0,2,3,1,3,1,2,3,4,3,2,3,0,3,3,4,4,0,1,"625.5","<br><br><br><br><table><tr><td><img src=static/images/oddball_down.png></td><td><img src=static/images/oddball_down.png></td><td><img src=static/images/oddball_up.png></td></tr></table>","69","1","","","","","","","","","","","","","","","","","",""
"","html-keyboard-response",108,420138.581248642,"0.0-6.0-1.12-1.12",81,20,FALSE,1666202568453,750,"q","q","Only if I get the answer right","You win money","A fixed time limit",5,"Female","no","no",0,0,0,0,0,0,0,0,1,0,0,0,0,0,1,0,0,0,0,1,0,0,2,2,0,0,1,1,1,2,2,2,2,0,1,2,1,1,0,0,0,1,1,0,0,2,3,1,3,1,2,3,4,3,2,3,0,3,3,4,4,0,1,"649.08125","","e","","true","0","12","down","up","2","e","1","0","1666202989964.58","","","true","60","12","0.0833333333333333","0.2","false"
"","html-keyboard-response",109,420774,"0.0-6.0-1.13-0.13",81,20,FALSE,1666202568453,750,"q","q","Only if I get the answer right","You win money","A fixed time limit",5,"Female","no","no",0,0,0,0,0,0,0,0,1,0,0,0,0,0,1,0,0,0,0,1,0,0,2,2,0,0,1,1,1,2,2,2,2,0,1,2,1,1,0,0,0,1,1,0,0,2,3,1,3,1,2,3,4,3,2,3,0,3,3,4,4,0,1,"658","<br><br><br><br><table><tr><td><img src=static/images/oddball_down.png></td><td><img src=static/images/oddball_up.png></td><td><img src=static/images/oddball_down.png></td></tr></table>","87","1","","","","","","","","","","","","","","","","","",""
"","html-keyboard-response",110,420897.281359343,"0.0-6.0-1.13-1.13",81,20,FALSE,1666202568453,750,"q","q","Only if I get the answer right","You win money","A fixed time limit",5,"Female","no","no",0,0,0,0,0,0,0,0,1,0,0,0,0,0,1,0,0,0,0,1,0,0,2,2,0,0,1,1,1,2,2,2,2,0,1,2,1,1,0,0,0,1,1,0,0,2,3,1,3,1,2,3,4,3,2,3,0,3,3,4,4,0,1,"673.281","","w","","true","0","13","down","up","1","w","1","0","1666202990723.28","","","true","60","13","0.1","0.2","false"
"","html-keyboard-response",111,421478,"0.0-6.0-1.14-0.14",81,20,FALSE,1666202568453,750,"q","q","Only if I get the answer right","You win money","A fixed time limit",5,"Female","no","no",0,0,0,0,0,0,0,0,1,0,0,0,0,0,1,0,0,0,0,1,0,0,2,2,0,0,1,1,1,2,2,2,2,0,1,2,1,1,0,0,0,1,1,0,0,2,3,1,3,1,2,3,4,3,2,3,0,3,3,4,4,0,1,"595.2999999523163","<br><br><br><br><table><tr><td><img src=static/images/oddball_up.png></td><td><img src=static/images/oddball_up.png></td><td><img src=static/images/oddball_down.png></td></tr></table>","69","1","","","","","","","","","","","","","","","","","",""
"","html-keyboard-response",112,421597.044172016,"0.0-6.0-1.14-1.14",81,20,FALSE,1666202568453,750,"q","q","Only if I get the answer right","You win money","A fixed time limit",5,"Female","no","no",0,0,0,0,0,0,0,0,1,0,0,0,0,0,1,0,0,0,0,1,0,0,2,2,0,0,1,1,1,2,2,2,2,0,1,2,1,1,0,0,0,1,1,0,0,2,3,1,3,1,2,3,4,3,2,3,0,3,3,4,4,0,1,"608.344171967999","","e","","true","0","14","up","down","2","e","1","0","1666202991423.04","","","true","60","14","0.116666666666667","0.2","false"
"","html-keyboard-response",113,422246,"0.0-6.0-1.15-0.15",81,20,FALSE,1666202568453,750,"q","q","Only if I get the answer right","You win money","A fixed time limit",5,"Female","no","no",0,0,0,0,0,0,0,0,1,0,0,0,0,0,1,0,0,0,0,1,0,0,2,2,0,0,1,1,1,2,2,2,2,0,1,2,1,1,0,0,0,1,1,0,0,2,3,1,3,1,2,3,4,3,2,3,0,3,3,4,4,0,1,"661.5","<br><br><br><br><table><tr><td><img src=static/images/oddball_up.png></td><td><img src=static/images/oddball_down.png></td><td><img src=static/images/oddball_down.png></td></tr></table>","81","1","","","","","","","","","","","","","","","","","",""
"","html-keyboard-response",114,422325.122224567,"0.0-6.0-1.15-1.15",81,20,FALSE,1666202568453,750,"q","q","Only if I get the answer right","You win money","A fixed time limit",5,"Female","no","no",0,0,0,0,0,0,0,0,1,0,0,0,0,0,1,0,0,0,0,1,0,0,2,2,0,0,1,1,1,2,2,2,2,0,1,2,1,1,0,0,0,1,1,0,0,2,3,1,3,1,2,3,4,3,2,3,0,3,3,4,4,0,1,"634.62222","","q","","true","0","15","down","up","0","q","1","0","1666202992151.12","","","true","60","15","0.133333333333333","0.2","false"
"","html-keyboard-response",115,423014,"0.0-6.0-1.16-0.16",81,20,FALSE,1666202568453,750,"q","q","Only if I get the answer right","You win money","A fixed time limit",5,"Female","no","no",0,0,0,0,0,0,0,0,1,0,0,0,0,0,1,0,0,0,0,1,0,0,2,2,0,0,1,1,1,2,2,2,2,0,1,2,1,1,0,0,0,1,1,0,0,2,3,1,3,1,2,3,4,3,2,3,0,3,3,4,4,0,1,"661.6000000238419","<br><br><br><br><table><tr><td><img src=static/images/oddball_up.png></td><td><img src=static/images/oddball_down.png></td><td><img src=static/images/oddball_down.png></td></tr></table>","81","1","","","","","","","","","","","","","","","","","",""
"","html-keyboard-response",116,423158.18141229,"0.0-6.0-1.16-1.16",81,20,FALSE,1666202568453,750,"q","q","Only if I get the answer right","You win money","A fixed time limit",5,"Female","no","no",0,0,0,0,0,0,0,0,1,0,0,0,0,0,1,0,0,0,0,1,0,0,2,2,0,0,1,1,1,2,2,2,2,0,1,2,1,1,0,0,0,1,1,0,0,2,3,1,3,1,2,3,4,3,2,3,0,3,3,4,4,0,1,"698.781412313876","","q","","true","0","16","down","up","0","q","1","0","1666202992984.18","","","true","60","16","0.15","0.2","false"
"","html-keyboard-response",117,423734,"0.0-6.0-1.17-0.17",81,20,FALSE,1666202568453,750,"q","q","Only if I get the answer right","You win money","A fixed time limit",5,"Female","no","no",0,0,0,0,0,0,0,0,1,0,0,0,0,0,1,0,0,0,0,1,0,0,2,2,0,0,1,1,1,2,2,2,2,0,1,2,1,1,0,0,0,1,1,0,0,2,3,1,3,1,2,3,4,3,2,3,0,3,3,4,4,0,1,"613.2000000476837","<br><br><br><br><table><tr><td><img src=static/images/oddball_up.png></td><td><img src=static/images/oddball_down.png></td><td><img src=static/images/oddball_up.png></td></tr></table>","87","1","","","","","","","","","","","","","","","","","",""
"","html-keyboard-response",118,423843.530344493,"0.0-6.0-1.17-1.17",81,20,FALSE,1666202568453,750,"q","q","Only if I get the answer right","You win money","A fixed time limit",5,"Female","no","no",0,0,0,0,0,0,0,0,1,0,0,0,0,0,1,0,0,0,0,1,0,0,2,2,0,0,1,1,1,2,2,2,2,0,1,2,1,1,0,0,0,1,1,0,0,2,3,1,3,1,2,3,4,3,2,3,0,3,3,4,4,0,1,"617.730344540752","","w","","true","0","17","up","down","1","w","1","0","1666202993669.53","","","true","60","17","0.166666666666667","0.2","false"
"","html-keyboard-response",119,424406,"0.0-6.0-1.18-0.18",81,20,FALSE,1666202568453,750,"q","q","Only if I get the answer right","You win money","A fixed time limit",5,"Female","no","no",0,0,0,0,0,0,0,0,1,0,0,0,0,0,1,0,0,0,0,1,0,0,2,2,0,0,1,1,1,2,2,2,2,0,1,2,1,1,0,0,0,1,1,0,0,2,3,1,3,1,2,3,4,3,2,3,0,3,3,4,4,0,1,"567.1000000238419","<br><br><br><br><table><tr><td><img src=static/images/oddball_up.png></td><td><img src=static/images/oddball_down.png></td><td><img src=static/images/oddball_up.png></td></tr></table>","87","1","","","","","","","","","","","","","","","","","",""
"","html-keyboard-response",120,424522.218508511,"0.0-6.0-1.18-1.18",81,20,FALSE,1666202568453,750,"q","q","Only if I get the answer right","You win money","A fixed time limit",5,"Female","no","no",0,0,0,0,0,0,0,0,1,0,0,0,0,0,1,0,0,0,0,1,0,0,2,2,0,0,1,1,1,2,2,2,2,0,1,2,1,1,0,0,0,1,1,0,0,2,3,1,3,1,2,3,4,3,2,3,0,3,3,4,4,0,1,"567.318508534803","","w","","true","0","18","up","down","1","w","1","0","1666202994348.22","","","true","60","18","0.183333333333333","0.2","false"
"","html-keyboard-response",121,425279,"0.0-6.0-1.19-0.19",81,20,FALSE,1666202568453,750,"q","q","Only if I get the answer right","You win money","A fixed time limit",5,"Female","no","no",0,0,0,0,0,0,0,0,1,0,0,0,0,0,1,0,0,0,0,1,0,0,2,2,0,0,1,1,1,2,2,2,2,0,1,2,1,1,0,0,0,1,1,0,0,2,3,1,3,1,2,3,4,3,2,3,0,3,3,4,4,0,1,"null","<br><br><br><br><table><tr><td><img src=static/images/oddball_up.png></td><td><img src=static/images/oddball_down.png></td><td><img src=static/images/oddball_down.png></td></tr></table>","null","","","","","","","","","","","","","","","","","","",""
"","html-keyboard-response",122,425396,"0.0-6.0-1.19-1.19",81,20,FALSE,1666202568453,750,"q","q","Only if I get the answer right","You win money","A fixed time limit",5,"Female","no","no",0,0,0,0,0,0,0,0,1,0,0,0,0,0,1,0,0,0,0,1,0,0,2,2,0,0,1,1,1,2,2,2,2,0,1,2,1,1,0,0,0,1,1,0,0,2,3,1,3,1,2,3,4,3,2,3,0,3,3,4,4,0,1,"null","","null","","true","0","19","down","up","0","q","0","0","1666202995222","","","true","60","19","0.2","0.2","true"
"","html-keyboard-response",123,426148,"0.0-6.0-1.20-0.20",81,20,FALSE,1666202568453,750,"q","q","Only if I get the answer right","You win money","A fixed time limit",5,"Female","no","no",0,0,0,0,0,0,0,0,1,0,0,0,0,0,1,0,0,0,0,1,0,0,2,2,0,0,1,1,1,2,2,2,2,0,1,2,1,1,0,0,0,1,1,0,0,2,3,1,3,1,2,3,4,3,2,3,0,3,3,4,4,0,1,"null","<br><br><br><br><table><tr><td><img src=static/images/oddball_up.png></td><td><img src=static/images/oddball_down.png></td><td><img src=static/images/oddball_down.png></td></tr></table>","null","","","","","","","","","","","","","","","","","","",""
"","html-keyboard-response",124,426264,"0.0-6.0-1.20-1.20",81,20,FALSE,1666202568453,750,"q","q","Only if I get the answer right","You win money","A fixed time limit",5,"Female","no","no",0,0,0,0,0,0,0,0,1,0,0,0,0,0,1,0,0,0,0,1,0,0,2,2,0,0,1,1,1,2,2,2,2,0,1,2,1,1,0,0,0,1,1,0,0,2,3,1,3,1,2,3,4,3,2,3,0,3,3,4,4,0,1,"null","","null","","true","0","20","down","up","0","q","0","0","1666202996090","","","true","60","20","0.2","0.2","true"
"","html-keyboard-response",125,426982,"0.0-6.0-1.21-0.21",81,20,FALSE,1666202568453,750,"q","q","Only if I get the answer right","You win money","A fixed time limit",5,"Female","no","no",0,0,0,0,0,0,0,0,1,0,0,0,0,0,1,0,0,0,0,1,0,0,2,2,0,0,1,1,1,2,2,2,2,0,1,2,1,1,0,0,0,1,1,0,0,2,3,1,3,1,2,3,4,3,2,3,0,3,3,4,4,0,1,"717","<br><br><br><br><table><tr><td><img src=static/images/oddball_up.png></td><td><img src=static/images/oddball_up.png></td><td><img src=static/images/oddball_down.png></td></tr></table>","69","1","","","","","","","","","","","","","","","","","",""
"","html-keyboard-response",126,427038.775950845,"0.0-6.0-1.21-1.21",81,20,FALSE,1666202568453,750,"q","q","Only if I get the answer right","You win money","A fixed time limit",5,"Female","no","no",0,0,0,0,0,0,0,0,1,0,0,0,0,0,1,0,0,0,0,1,0,0,2,2,0,0,1,1,1,2,2,2,2,0,1,2,1,1,0,0,0,1,1,0,0,2,3,1,3,1,2,3,4,3,2,3,0,3,3,4,4,0,1,"669.776","","e","","true","0","21","up","down","2","e","1","0","1666202996864.78","","","true","60","21","0.2","0.2","false"
"","html-keyboard-response",127,427654,"0.0-6.0-1.22-0.22",81,20,FALSE,1666202568453,750,"q","q","Only if I get the answer right","You win money","A fixed time limit",5,"Female","no","no",0,0,0,0,0,0,0,0,1,0,0,0,0,0,1,0,0,0,0,1,0,0,2,2,0,0,1,1,1,2,2,2,2,0,1,2,1,1,0,0,0,1,1,0,0,2,3,1,3,1,2,3,4,3,2,3,0,3,3,4,4,0,1,"567.1999999284744","<br><br><br><br><table><tr><td><img src=static/images/oddball_down.png></td><td><img src=static/images/oddball_up.png></td><td><img src=static/images/oddball_up.png></td></tr></table>","81","1","","","","","","","","","","","","","","","","","",""
"","html-keyboard-response",128,427696.138625156,"0.0-6.0-1.22-1.22",81,20,FALSE,1666202568453,750,"q","q","Only if I get the answer right","You win money","A fixed time limit",5,"Female","no","no",0,0,0,0,0,0,0,0,1,0,0,0,0,0,1,0,0,0,0,1,0,0,2,2,0,0,1,1,1,2,2,2,2,0,1,2,1,1,0,0,0,1,1,0,0,2,3,1,3,1,2,3,4,3,2,3,0,3,3,4,4,0,1,"501.338625084126","","q","","true","0","22","up","down","0","q","1","0","1666202997522.14","","","true","60","22","0.216666666666667","0.2","false"
"","html-keyboard-response",129,428412,"0.0-6.0-1.23-0.23",81,20,FALSE,1666202568453,750,"q","q","Only if I get the answer right","You win money","A fixed time limit",5,"Female","no","no",0,0,0,0,0,0,0,0,1,0,0,0,0,0,1,0,0,0,0,1,0,0,2,2,0,0,1,1,1,2,2,2,2,0,1,2,1,1,0,0,0,1,1,0,0,2,3,1,3,1,2,3,4,3,2,3,0,3,3,4,4,0,1,"635.1999999284744","<br><br><br><br><table><tr><td><img src=static/images/oddball_down.png></td><td><img src=static/images/oddball_up.png></td><td><img src=static/images/oddball_down.png></td></tr></table>","87","1","","","","","","","","","","","","","","","","","",""
"","html-keyboard-response",130,428535.224013679,"0.0-6.0-1.23-1.23",81,20,FALSE,1666202568453,750,"q","q","Only if I get the answer right","You win money","A fixed time limit",5,"Female","no","no",0,0,0,0,0,0,0,0,1,0,0,0,0,0,1,0,0,0,0,1,0,0,2,2,0,0,1,1,1,2,2,2,2,0,1,2,1,1,0,0,0,1,1,0,0,2,3,1,3,1,2,3,4,3,2,3,0,3,3,4,4,0,1,"656.424013607903","","w","","true","0","23","down","up","1","w","1","0","1666202998361.22","","","true","60","23","0.233333333333333","0.2","false"
"","html-keyboard-response",131,429102,"0.0-6.0-1.24-0.24",81,20,FALSE,1666202568453,750,"q","q","Only if I get the answer right","You win money","A fixed time limit",5,"Female","no","no",0,0,0,0,0,0,0,0,1,0,0,0,0,0,1,0,0,0,0,1,0,0,2,2,0,0,1,1,1,2,2,2,2,0,1,2,1,1,0,0,0,1,1,0,0,2,3,1,3,1,2,3,4,3,2,3,0,3,3,4,4,0,1,"587.5999999046326","<br><br><br><br><table><tr><td><img src=static/images/oddball_up.png></td><td><img src=static/images/oddball_up.png></td><td><img src=static/images/oddball_down.png></td></tr></table>","69","1","","","","","","","","","","","","","","","","","",""
"","html-keyboard-response",132,429159.158365323,"0.0-6.0-1.24-1.24",81,20,FALSE,1666202568453,750,"q","q","Only if I get the answer right","You win money","A fixed time limit",5,"Female","no","no",0,0,0,0,0,0,0,0,1,0,0,0,0,0,1,0,0,0,0,1,0,0,2,2,0,0,1,1,1,2,2,2,2,0,1,2,1,1,0,0,0,1,1,0,0,2,3,1,3,1,2,3,4,3,2,3,0,3,3,4,4,0,1,"530.758365227579","","e","","true","0","24","up","down","2","e","1","0","1666202998985.16","","","true","60","24","0.25","0.2","false"
"","html-keyboard-response",133,429970,"0.0-6.0-1.25-0.25",81,20,FALSE,1666202568453,750,"q","q","Only if I get the answer right","You win money","A fixed time limit",5,"Female","no","no",0,0,0,0,0,0,0,0,1,0,0,0,0,0,1,0,0,0,0,1,0,0,2,2,0,0,1,1,1,2,2,2,2,0,1,2,1,1,0,0,0,1,1,0,0,2,3,1,3,1,2,3,4,3,2,3,0,3,3,4,4,0,1,"null","<br><br><br><br><table><tr><td><img src=static/images/oddball_down.png></td><td><img src=static/images/oddball_up.png></td><td><img src=static/images/oddball_down.png></td></tr></table>","null","","","","","","","","","","","","","","","","","","",""
"","html-keyboard-response",134,430089,"0.0-6.0-1.25-1.25",81,20,FALSE,1666202568453,750,"q","q","Only if I get the answer right","You win money","A fixed time limit",5,"Female","no","no",0,0,0,0,0,0,0,0,1,0,0,0,0,0,1,0,0,0,0,1,0,0,2,2,0,0,1,1,1,2,2,2,2,0,1,2,1,1,0,0,0,1,1,0,0,2,3,1,3,1,2,3,4,3,2,3,0,3,3,4,4,0,1,"null","","null","","true","0","25","down","up","1","w","0","0","1666202999915","","","true","60","25","0.266666666666667","0.2","true"
"","html-keyboard-response",135,430630,"0.0-6.0-1.26-0.26",81,20,FALSE,1666202568453,750,"q","q","Only if I get the answer right","You win money","A fixed time limit",5,"Female","no","no",0,0,0,0,0,0,0,0,1,0,0,0,0,0,1,0,0,0,0,1,0,0,2,2,0,0,1,1,1,2,2,2,2,0,1,2,1,1,0,0,0,1,1,0,0,2,3,1,3,1,2,3,4,3,2,3,0,3,3,4,4,0,1,"541.2000000476837","<br><br><br><br><table><tr><td><img src=static/images/oddball_up.png></td><td><img src=static/images/oddball_down.png></td><td><img src=static/images/oddball_down.png></td></tr></table>","81","1","","","","","","","","","","","","","","","","","",""
"","html-keyboard-response",136,430752.22905307,"0.0-6.0-1.26-1.26",81,20,FALSE,1666202568453,750,"q","q","Only if I get the answer right","You win money","A fixed time limit",5,"Female","no","no",0,0,0,0,0,0,0,0,1,0,0,0,0,0,1,0,0,0,0,1,0,0,2,2,0,0,1,1,1,2,2,2,2,0,1,2,1,1,0,0,0,1,1,0,0,2,3,1,3,1,2,3,4,3,2,3,0,3,3,4,4,0,1,"558.429053117958","","q","","true","0","26","down","up","0","q","1","0","1666203000578.23","","","true","60","26","0.266666666666667","0.2","false"
"","html-keyboard-response",137,431270,"0.0-6.0-1.27-0.27",81,20,FALSE,1666202568453,750,"q","q","Only if I get the answer right","You win money","A fixed time limit",5,"Female","no","no",0,0,0,0,0,0,0,0,1,0,0,0,0,0,1,0,0,0,0,1,0,0,2,2,0,0,1,1,1,2,2,2,2,0,1,2,1,1,0,0,0,1,1,0,0,2,3,1,3,1,2,3,4,3,2,3,0,3,3,4,4,0,1,"534.5999999046326","<br><br><br><br><table><tr><td><img src=static/images/oddball_up.png></td><td><img src=static/images/oddball_down.png></td><td><img src=static/images/oddball_down.png></td></tr></table>","81","1","","","","","","","","","","","","","","","","","",""
"","html-keyboard-response",138,431276.276066797,"0.0-6.0-1.27-1.27",81,20,FALSE,1666202568453,750,"q","q","Only if I get the answer right","You win money","A fixed time limit",5,"Female","no","no",0,0,0,0,0,0,0,0,1,0,0,0,0,0,1,0,0,0,0,1,0,0,2,2,0,0,1,1,1,2,2,2,2,0,1,2,1,1,0,0,0,1,1,0,0,2,3,1,3,1,2,3,4,3,2,3,0,3,3,4,4,0,1,"426.876066701646","","q","","true","0","27","down","up","0","q","1","0","1666203001102.28","","","true","60","27","0.283333333333333","0.2","false"
"","html-keyboard-response",139,431910,"0.0-6.0-1.28-0.28",81,20,FALSE,1666202568453,750,"q","q","Only if I get the answer right","You win money","A fixed time limit",5,"Female","no","no",0,0,0,0,0,0,0,0,1,0,0,0,0,0,1,0,0,0,0,1,0,0,2,2,0,0,1,1,1,2,2,2,2,0,1,2,1,1,0,0,0,1,1,0,0,2,3,1,3,1,2,3,4,3,2,3,0,3,3,4,4,0,1,"524.8999999761581","<br><br><br><br><table><tr><td><img src=static/images/oddball_down.png></td><td><img src=static/images/oddball_up.png></td><td><img src=static/images/oddball_up.png></td></tr></table>","81","1","","","","","","","","","","","","","","","","","",""
"","html-keyboard-response",140,432092.965831471,"0.0-6.0-1.28-1.28",81,20,FALSE,1666202568453,750,"q","q","Only if I get the answer right","You win money","A fixed time limit",5,"Female","no","no",0,0,0,0,0,0,0,0,1,0,0,0,0,0,1,0,0,0,0,1,0,0,2,2,0,0,1,1,1,2,2,2,2,0,1,2,1,1,0,0,0,1,1,0,0,2,3,1,3,1,2,3,4,3,2,3,0,3,3,4,4,0,1,"597.865831447205","","q","","true","0","28","up","down","0","q","1","0","1666203001919.97","","","true","60","28","0.3","0.2","false"
"","html-keyboard-response",141,432502,"0.0-6.0-1.29-0.29",81,20,FALSE,1666202568453,750,"q","q","Only if I get the answer right","You win money","A fixed time limit",5,"Female","no","no",0,0,0,0,0,0,0,0,1,0,0,0,0,0,1,0,0,0,0,1,0,0,2,2,0,0,1,1,1,2,2,2,2,0,1,2,1,1,0,0,0,1,1,0,0,2,3,1,3,1,2,3,4,3,2,3,0,3,3,4,4,0,1,"481","<br><br><br><br><table><tr><td><img src=static/images/oddball_up.png></td><td><img src=static/images/oddball_up.png></td><td><img src=static/images/oddball_down.png></td></tr></table>","69","1","","","","","","","","","","","","","","","","","",""
"","html-keyboard-response",142,432596.5879719,"0.0-6.0-1.29-1.29",81,20,FALSE,1666202568453,750,"q","q","Only if I get the answer right","You win money","A fixed time limit",5,"Female","no","no",0,0,0,0,0,0,0,0,1,0,0,0,0,0,1,0,0,0,0,1,0,0,2,2,0,0,1,1,1,2,2,2,2,0,1,2,1,1,0,0,0,1,1,0,0,2,3,1,3,1,2,3,4,3,2,3,0,3,3,4,4,0,1,"472.588","","e","","true","0","29","up","down","2","e","1","0","1666203002422.59","","","true","60","29","0.316666666666667","0.2","false"
"","html-keyboard-response",143,433046,"0.0-6.0-1.30-0.30",81,20,FALSE,1666202568453,750,"q","q","Only if I get the answer right","You win money","A fixed time limit",5,"Female","no","no",0,0,0,0,0,0,0,0,1,0,0,0,0,0,1,0,0,0,0,1,0,0,2,2,0,0,1,1,1,2,2,2,2,0,1,2,1,1,0,0,0,1,1,0,0,2,3,1,3,1,2,3,4,3,2,3,0,3,3,4,4,0,1,"440.89999997615814","<br><br><br><br><table><tr><td><img src=static/images/oddball_down.png></td><td><img src=static/images/oddball_up.png></td><td><img src=static/images/oddball_up.png></td></tr></table>","81","1","","","","","","","","","","","","","","","","","",""
"","html-keyboard-response",144,433190.3475266,"0.0-6.0-1.30-1.30",81,20,FALSE,1666202568453,750,"q","q","Only if I get the answer right","You win money","A fixed time limit",5,"Female","no","no",0,0,0,0,0,0,0,0,1,0,0,0,0,0,1,0,0,0,0,1,0,0,2,2,0,0,1,1,1,2,2,2,2,0,1,2,1,1,0,0,0,1,1,0,0,2,3,1,3,1,2,3,4,3,2,3,0,3,3,4,4,0,1,"475.247526576399","","q","","true","0","30","up","down","0","q","1","0","1666203003016.35","","","true","60","30","0.333333333333333","0.2","false"
"","html-keyboard-response",145,433678,"0.0-6.0-1.31-0.31",81,20,FALSE,1666202568453,750,"q","q","Only if I get the answer right","You win money","A fixed time limit",5,"Female","no","no",0,0,0,0,0,0,0,0,1,0,0,0,0,0,1,0,0,0,0,1,0,0,2,2,0,0,1,1,1,2,2,2,2,0,1,2,1,1,0,0,0,1,1,0,0,2,3,1,3,1,2,3,4,3,2,3,0,3,3,4,4,0,1,"521.3999999761581","<br><br><br><br><table><tr><td><img src=static/images/oddball_down.png></td><td><img src=static/images/oddball_up.png></td><td><img src=static/images/oddball_down.png></td></tr></table>","87","1","","","","","","","","","","","","","","","","","",""
"","html-keyboard-response",146,433908.515990476,"0.0-6.0-1.31-1.31",81,20,FALSE,1666202568453,750,"q","q","Only if I get the answer right","You win money","A fixed time limit",5,"Female","no","no",0,0,0,0,0,0,0,0,1,0,0,0,0,0,1,0,0,0,0,1,0,0,2,2,0,0,1,1,1,2,2,2,2,0,1,2,1,1,0,0,0,1,1,0,0,2,3,1,3,1,2,3,4,3,2,3,0,3,3,4,4,0,1,"639.915990452218","","w","","true","0","31","down","up","1","w","1","0","1666203003734.52","","","true","60","31","0.35","0.2","false"
"","html-keyboard-response",147,434390,"0.0-6.0-1.32-0.32",81,20,FALSE,1666202568453,750,"q","q","Only if I get the answer right","You win money","A fixed time limit",5,"Female","no","no",0,0,0,0,0,0,0,0,1,0,0,0,0,0,1,0,0,0,0,1,0,0,2,2,0,0,1,1,1,2,2,2,2,0,1,2,1,1,0,0,0,1,1,0,0,2,3,1,3,1,2,3,4,3,2,3,0,3,3,4,4,0,1,"599.2000000476837","<br><br><br><br><table><tr><td><img src=static/images/oddball_down.png></td><td><img src=static/images/oddball_up.png></td><td><img src=static/images/oddball_up.png></td></tr></table>","81","1","","","","","","","","","","","","","","","","","",""
"","html-keyboard-response",148,434452.126411666,"0.0-6.0-1.32-1.32",81,20,FALSE,1666202568453,750,"q","q","Only if I get the answer right","You win money","A fixed time limit",5,"Female","no","no",0,0,0,0,0,0,0,0,1,0,0,0,0,0,1,0,0,0,0,1,0,0,2,2,0,0,1,1,1,2,2,2,2,0,1,2,1,1,0,0,0,1,1,0,0,2,3,1,3,1,2,3,4,3,2,3,0,3,3,4,4,0,1,"559.326411714073","","q","","true","0","32","up","down","0","q","1","0","1666203004278.13","","","true","60","32","0.366666666666667","0.2","false"
"","html-keyboard-response",149,435030,"0.0-6.0-1.33-0.33",81,20,FALSE,1666202568453,750,"q","q","Only if I get the answer right","You win money","A fixed time limit",5,"Female","no","no",0,0,0,0,0,0,0,0,1,0,0,0,0,0,1,0,0,0,0,1,0,0,2,2,0,0,1,1,1,2,2,2,2,0,1,2,1,1,0,0,0,1,1,0,0,2,3,1,3,1,2,3,4,3,2,3,0,3,3,4,4,0,1,"545.7999999523163","<br><br><br><br><table><tr><td><img src=static/images/oddball_down.png></td><td><img src=static/images/oddball_up.png></td><td><img src=static/images/oddball_down.png></td></tr></table>","87","1","","","","","","","","","","","","","","","","","",""
"","html-keyboard-response",150,435269.927715871,"0.0-6.0-1.33-1.33",81,20,FALSE,1666202568453,750,"q","q","Only if I get the answer right","You win money","A fixed time limit",5,"Female","no","no",0,0,0,0,0,0,0,0,1,0,0,0,0,0,1,0,0,0,0,1,0,0,2,2,0,0,1,1,1,2,2,2,2,0,1,2,1,1,0,0,0,1,1,0,0,2,3,1,3,1,2,3,4,3,2,3,0,3,3,4,4,0,1,"681.727715823101","","w","","true","0","33","down","up","1","w","1","0","1666203005096.93","","","true","60","33","0.383333333333333","0.2","false"
"","html-keyboard-response",151,435614,"0.0-6.0-1.34-0.34",81,20,FALSE,1666202568453,750,"q","q","Only if I get the answer right","You win money","A fixed time limit",5,"Female","no","no",0,0,0,0,0,0,0,0,1,0,0,0,0,0,1,0,0,0,0,1,0,0,2,2,0,0,1,1,1,2,2,2,2,0,1,2,1,1,0,0,0,1,1,0,0,2,3,1,3,1,2,3,4,3,2,3,0,3,3,4,4,0,1,"478.6999999284744","<br><br><br><br><table><tr><td><img src=static/images/oddball_down.png></td><td><img src=static/images/oddball_up.png></td><td><img src=static/images/oddball_up.png></td></tr></table>","81","1","","","","","","","","","","","","","","","","","",""
"","html-keyboard-response",152,435807.790068338,"0.0-6.0-1.34-1.34",81,20,FALSE,1666202568453,750,"q","q","Only if I get the answer right","You win money","A fixed time limit",5,"Female","no","no",0,0,0,0,0,0,0,0,1,0,0,0,0,0,1,0,0,0,0,1,0,0,2,2,0,0,1,1,1,2,2,2,2,0,1,2,1,1,0,0,0,1,1,0,0,2,3,1,3,1,2,3,4,3,2,3,0,3,3,4,4,0,1,"567.490068266947","","q","","true","0","34","up","down","0","q","1","0","1666203005633.79","","","true","60","34","0.4","0.2","false"
"","html-keyboard-response",153,436214,"0.0-6.0-1.35-0.35",81,20,FALSE,1666202568453,750,"q","q","Only if I get the answer right","You win money","A fixed time limit",5,"Female","no","no",0,0,0,0,0,0,0,0,1,0,0,0,0,0,1,0,0,0,0,1,0,0,2,2,0,0,1,1,1,2,2,2,2,0,1,2,1,1,0,0,0,1,1,0,0,2,3,1,3,1,2,3,4,3,2,3,0,3,3,4,4,0,1,"494.60000002384186","<br><br><br><br><table><tr><td><img src=static/images/oddball_down.png></td><td><img src=static/images/oddball_up.png></td><td><img src=static/images/oddball_up.png></td></tr></table>","81","1","","","","","","","","","","","","","","","","","",""
"","html-keyboard-response",154,436395.981732404,"0.0-6.0-1.35-1.35",81,20,FALSE,1666202568453,750,"q","q","Only if I get the answer right","You win money","A fixed time limit",5,"Female","no","no",0,0,0,0,0,0,0,0,1,0,0,0,0,0,1,0,0,0,0,1,0,0,2,2,0,0,1,1,1,2,2,2,2,0,1,2,1,1,0,0,0,1,1,0,0,2,3,1,3,1,2,3,4,3,2,3,0,3,3,4,4,0,1,"570.581732427626","","q","","true","0","35","up","down","0","q","1","0","1666203006221.98","","","true","60","35","0.416666666666667","0.2","false"
"","html-keyboard-response",155,436814,"0.0-6.0-1.36-0.36",81,20,FALSE,1666202568453,750,"q","q","Only if I get the answer right","You win money","A fixed time limit",5,"Female","no","no",0,0,0,0,0,0,0,0,1,0,0,0,0,0,1,0,0,0,0,1,0,0,2,2,0,0,1,1,1,2,2,2,2,0,1,2,1,1,0,0,0,1,1,0,0,2,3,1,3,1,2,3,4,3,2,3,0,3,3,4,4,0,1,"492.7999999523163","<br><br><br><br><table><tr><td><img src=static/images/oddball_up.png></td><td><img src=static/images/oddball_down.png></td><td><img src=static/images/oddball_up.png></td></tr></table>","87","1","","","","","","","","","","","","","","","","","",""
"","html-keyboard-response",156,436922.024090167,"0.0-6.0-1.36-1.36",81,20,FALSE,1666202568453,750,"q","q","Only if I get the answer right","You win money","A fixed time limit",5,"Female","no","no",0,0,0,0,0,0,0,0,1,0,0,0,0,0,1,0,0,0,0,1,0,0,2,2,0,0,1,1,1,2,2,2,2,0,1,2,1,1,0,0,0,1,1,0,0,2,3,1,3,1,2,3,4,3,2,3,0,3,3,4,4,0,1,"493.824090119729","","w","","true","0","36","up","down","1","w","1","0","1666203006748.02","","","true","60","36","0.433333333333333","0.2","false"
"","html-keyboard-response",157,437549,"0.0-6.0-1.37-0.37",81,20,FALSE,1666202568453,750,"q","q","Only if I get the answer right","You win money","A fixed time limit",5,"Female","no","no",0,0,0,0,0,0,0,0,1,0,0,0,0,0,1,0,0,0,0,1,0,0,2,2,0,0,1,1,1,2,2,2,2,0,1,2,1,1,0,0,0,1,1,0,0,2,3,1,3,1,2,3,4,3,2,3,0,3,3,4,4,0,1,"611.7999999523163","<br><br><br><br><table><tr><td><img src=static/images/oddball_down.png></td><td><img src=static/images/oddball_down.png></td><td><img src=static/images/oddball_up.png></td></tr></table>","69","1","","","","","","","","","","","","","","","","","",""
"","html-keyboard-response",158,437705.348487331,"0.0-6.0-1.37-1.37",81,20,FALSE,1666202568453,750,"q","q","Only if I get the answer right","You win money","A fixed time limit",5,"Female","no","no",0,0,0,0,0,0,0,0,1,0,0,0,0,0,1,0,0,0,0,1,0,0,2,2,0,0,1,1,1,2,2,2,2,0,1,2,1,1,0,0,0,1,1,0,0,2,3,1,3,1,2,3,4,3,2,3,0,3,3,4,4,0,1,"661.148487283169","","e","","true","0","37","down","up","2","e","1","0","1666203007531.35","","","true","60","37","0.45","0.2","false"
"","html-keyboard-response",159,438214,"0.0-6.0-1.38-0.38",81,20,FALSE,1666202568453,750,"q","q","Only if I get the answer right","You win money","A fixed time limit",5,"Female","no","no",0,0,0,0,0,0,0,0,1,0,0,0,0,0,1,0,0,0,0,1,0,0,2,2,0,0,1,1,1,2,2,2,2,0,1,2,1,1,0,0,0,1,1,0,0,2,3,1,3,1,2,3,4,3,2,3,0,3,3,4,4,0,1,"557.7000000476837","<br><br><br><br><table><tr><td><img src=static/images/oddball_down.png></td><td><img src=static/images/oddball_down.png></td><td><img src=static/images/oddball_up.png></td></tr></table>","69","1","","","","","","","","","","","","","","","","","",""
"","html-keyboard-response",160,438231.652666158,"0.0-6.0-1.38-1.38",81,20,FALSE,1666202568453,750,"q","q","Only if I get the answer right","You win money","A fixed time limit",5,"Female","no","no",0,0,0,0,0,0,0,0,1,0,0,0,0,0,1,0,0,0,0,1,0,0,2,2,0,0,1,1,1,2,2,2,2,0,1,2,1,1,0,0,0,1,1,0,0,2,3,1,3,1,2,3,4,3,2,3,0,3,3,4,4,0,1,"466.352666205879","","e","","true","0","38","down","up","2","e","1","0","1666203008057.65","","","true","60","38","0.466666666666667","0.2","false"
"","html-keyboard-response",161,438862,"0.0-6.0-1.39-0.39",81,20,FALSE,1666202568453,750,"q","q","Only if I get the answer right","You win money","A fixed time limit",5,"Female","no","no",0,0,0,0,0,0,0,0,1,0,0,0,0,0,1,0,0,0,0,1,0,0,2,2,0,0,1,1,1,2,2,2,2,0,1,2,1,1,0,0,0,1,1,0,0,2,3,1,3,1,2,3,4,3,2,3,0,3,3,4,4,0,1,"538.2000000476837","<br><br><br><br><table><tr><td><img src=static/images/oddball_down.png></td><td><img src=static/images/oddball_down.png></td><td><img src=static/images/oddball_up.png></td></tr></table>","69","1","","","","","","","","","","","","","","","","","",""
"","html-keyboard-response",162,439020.469783391,"0.0-6.0-1.39-1.39",81,20,FALSE,1666202568453,750,"q","q","Only if I get the answer right","You win money","A fixed time limit",5,"Female","no","no",0,0,0,0,0,0,0,0,1,0,0,0,0,0,1,0,0,0,0,1,0,0,2,2,0,0,1,1,1,2,2,2,2,0,1,2,1,1,0,0,0,1,1,0,0,2,3,1,3,1,2,3,4,3,2,3,0,3,3,4,4,0,1,"583.669783438748","","e","","true","0","39","down","up","2","e","1","0","1666203008846.47","","","true","60","39","0.483333333333333","0.2","false"
"","html-keyboard-response",163,439422,"0.0-6.0-1.40-0.40",81,20,FALSE,1666202568453,750,"q","q","Only if I get the answer right","You win money","A fixed time limit",5,"Female","no","no",0,0,0,0,0,0,0,0,1,0,0,0,0,0,1,0,0,0,0,1,0,0,2,2,0,0,1,1,1,2,2,2,2,0,1,2,1,1,0,0,0,1,1,0,0,2,3,1,3,1,2,3,4,3,2,3,0,3,3,4,4,0,1,"446","<br><br><br><br><table><tr><td><img src=static/images/oddball_down.png></td><td><img src=static/images/oddball_down.png></td><td><img src=static/images/oddball_up.png></td></tr></table>","69","1","","","","","","","","","","","","","","","","","",""
"","html-keyboard-response",164,439425.485031633,"0.0-6.0-1.40-1.40",81,20,FALSE,1666202568453,750,"q","q","Only if I get the answer right","You win money","A fixed time limit",5,"Female","no","no",0,0,0,0,0,0,0,0,1,0,0,0,0,0,1,0,0,0,0,1,0,0,2,2,0,0,1,1,1,2,2,2,2,0,1,2,1,1,0,0,0,1,1,0,0,2,3,1,3,1,2,3,4,3,2,3,0,3,3,4,4,0,1,"345.485","","e","","true","0","40","down","up","2","e","1","0","1666203009251.49","","","true","60","40","0.5","0.2","false"
"","html-keyboard-response",165,440022,"0.0-6.0-1.41-0.41",81,20,FALSE,1666202568453,750,"q","q","Only if I get the answer right","You win money","A fixed time limit",5,"Female","no","no",0,0,0,0,0,0,0,0,1,0,0,0,0,0,1,0,0,0,0,1,0,0,2,2,0,0,1,1,1,2,2,2,2,0,1,2,1,1,0,0,0,1,1,0,0,2,3,1,3,1,2,3,4,3,2,3,0,3,3,4,4,0,1,"494.89999997615814","<br><br><br><br><table><tr><td><img src=static/images/oddball_up.png></td><td><img src=static/images/oddball_down.png></td><td><img src=static/images/oddball_down.png></td></tr></table>","81","1","","","","","","","","","","","","","","","","","",""
"","html-keyboard-response",166,440035.91853187,"0.0-6.0-1.41-1.41",81,20,FALSE,1666202568453,750,"q","q","Only if I get the answer right","You win money","A fixed time limit",5,"Female","no","no",0,0,0,0,0,0,0,0,1,0,0,0,0,0,1,0,0,0,0,1,0,0,2,2,0,0,1,1,1,2,2,2,2,0,1,2,1,1,0,0,0,1,1,0,0,2,3,1,3,1,2,3,4,3,2,3,0,3,3,4,4,0,1,"402.818531845872","","q","","true","0","41","down","up","0","q","1","0","1666203009861.92","","","true","60","41","0.516666666666667","0.2","false"
"","html-keyboard-response",167,440884,"0.0-6.0-1.42-0.42",81,20,FALSE,1666202568453,750,"q","q","Only if I get the answer right","You win money","A fixed time limit",5,"Female","no","no",0,0,0,0,0,0,0,0,1,0,0,0,0,0,1,0,0,0,0,1,0,0,2,2,0,0,1,1,1,2,2,2,2,0,1,2,1,1,0,0,0,1,1,0,0,2,3,1,3,1,2,3,4,3,2,3,0,3,3,4,4,0,1,"null","<br><br><br><br><table><tr><td><img src=static/images/oddball_down.png></td><td><img src=static/images/oddball_up.png></td><td><img src=static/images/oddball_up.png></td></tr></table>","null","","","","","","","","","","","","","","","","","","",""
"","html-keyboard-response",168,441001,"0.0-6.0-1.42-1.42",81,20,FALSE,1666202568453,750,"q","q","Only if I get the answer right","You win money","A fixed time limit",5,"Female","no","no",0,0,0,0,0,0,0,0,1,0,0,0,0,0,1,0,0,0,0,1,0,0,2,2,0,0,1,1,1,2,2,2,2,0,1,2,1,1,0,0,0,1,1,0,0,2,3,1,3,1,2,3,4,3,2,3,0,3,3,4,4,0,1,"null","","null","","true","0","42","up","down","0","q","0","0","1666203010827","","","true","60","42","0.533333333333333","0.2","true"
"","html-keyboard-response",169,441582,"0.0-6.0-1.43-0.43",81,20,FALSE,1666202568453,750,"q","q","Only if I get the answer right","You win money","A fixed time limit",5,"Female","no","no",0,0,0,0,0,0,0,0,1,0,0,0,0,0,1,0,0,0,0,1,0,0,2,2,0,0,1,1,1,2,2,2,2,0,1,2,1,1,0,0,0,1,1,0,0,2,3,1,3,1,2,3,4,3,2,3,0,3,3,4,4,0,1,"580.7000000476837","<br><br><br><br><table><tr><td><img src=static/images/oddball_down.png></td><td><img src=static/images/oddball_down.png></td><td><img src=static/images/oddball_up.png></td></tr></table>","69","1","","","","","","","","","","","","","","","","","",""
"","html-keyboard-response",170,441686.730368814,"0.0-6.0-1.43-1.43",81,20,FALSE,1666202568453,750,"q","q","Only if I get the answer right","You win money","A fixed time limit",5,"Female","no","no",0,0,0,0,0,0,0,0,1,0,0,0,0,0,1,0,0,0,0,1,0,0,2,2,0,0,1,1,1,2,2,2,2,0,1,2,1,1,0,0,0,1,1,0,0,2,3,1,3,1,2,3,4,3,2,3,0,3,3,4,4,0,1,"570.430368861777","","e","","true","0","43","down","up","2","e","1","0","1666203011512.73","","","true","60","43","0.533333333333333","0.2","false"
"","html-keyboard-response",171,442238,"0.0-6.0-1.44-0.44",81,20,FALSE,1666202568453,750,"q","q","Only if I get the answer right","You win money","A fixed time limit",5,"Female","no","no",0,0,0,0,0,0,0,0,1,0,0,0,0,0,1,0,0,0,0,1,0,0,2,2,0,0,1,1,1,2,2,2,2,0,1,2,1,1,0,0,0,1,1,0,0,2,3,1,3,1,2,3,4,3,2,3,0,3,3,4,4,0,1,"540.2999999523163","<br><br><br><br><table><tr><td><img src=static/images/oddball_down.png></td><td><img src=static/images/oddball_up.png></td><td><img src=static/images/oddball_down.png></td></tr></table>","87","1","","","","","","","","","","","","","","","","","",""
"","html-keyboard-response",172,442316.749693831,"0.0-6.0-1.44-1.44",81,20,FALSE,1666202568453,750,"q","q","Only if I get the answer right","You win money","A fixed time limit",5,"Female","no","no",0,0,0,0,0,0,0,0,1,0,0,0,0,0,1,0,0,0,0,1,0,0,2,2,0,0,1,1,1,2,2,2,2,0,1,2,1,1,0,0,0,1,1,0,0,2,3,1,3,1,2,3,4,3,2,3,0,3,3,4,4,0,1,"509.04969378294","","w","","true","0","44","down","up","1","w","1","0","1666203012142.75","","","true","60","44","0.55","0.2","false"
"","html-keyboard-response",173,442902,"0.0-6.0-1.45-0.45",81,20,FALSE,1666202568453,750,"q","q","Only if I get the answer right","You win money","A fixed time limit",5,"Female","no","no",0,0,0,0,0,0,0,0,1,0,0,0,0,0,1,0,0,0,0,1,0,0,2,2,0,0,1,1,1,2,2,2,2,0,1,2,1,1,0,0,0,1,1,0,0,2,3,1,3,1,2,3,4,3,2,3,0,3,3,4,4,0,1,"552.8999999761581","<br><br><br><br><table><tr><td><img src=static/images/oddball_up.png></td><td><img src=static/images/oddball_up.png></td><td><img src=static/images/oddball_down.png></td></tr></table>","69","1","","","","","","","","","","","","","","","","","",""
"","html-keyboard-response",174,442928.331482393,"0.0-6.0-1.45-1.45",81,20,FALSE,1666202568453,750,"q","q","Only if I get the answer right","You win money","A fixed time limit",5,"Female","no","no",0,0,0,0,0,0,0,0,1,0,0,0,0,0,1,0,0,0,0,1,0,0,2,2,0,0,1,1,1,2,2,2,2,0,1,2,1,1,0,0,0,1,1,0,0,2,3,1,3,1,2,3,4,3,2,3,0,3,3,4,4,0,1,"463.231482369454","","e","","true","0","45","up","down","2","e","1","0","1666203012754.33","","","true","60","45","0.566666666666667","0.2","false"
"","html-keyboard-response",175,443566,"0.0-6.0-1.46-0.46",81,20,FALSE,1666202568453,750,"q","q","Only if I get the answer right","You win money","A fixed time limit",5,"Female","no","no",0,0,0,0,0,0,0,0,1,0,0,0,0,0,1,0,0,0,0,1,0,0,2,2,0,0,1,1,1,2,2,2,2,0,1,2,1,1,0,0,0,1,1,0,0,2,3,1,3,1,2,3,4,3,2,3,0,3,3,4,4,0,1,"547.5","<br><br><br><br><table><tr><td><img src=static/images/oddball_up.png></td><td><img src=static/images/oddball_down.png></td><td><img src=static/images/oddball_up.png></td></tr></table>","87","1","","","","","","","","","","","","","","","","","",""
"","html-keyboard-response",176,443770.527010924,"0.0-6.0-1.46-1.46",81,20,FALSE,1666202568453,750,"q","q","Only if I get the answer right","You win money","A fixed time limit",5,"Female","no","no",0,0,0,0,0,0,0,0,1,0,0,0,0,0,1,0,0,0,0,1,0,0,2,2,0,0,1,1,1,2,2,2,2,0,1,2,1,1,0,0,0,1,1,0,0,2,3,1,3,1,2,3,4,3,2,3,0,3,3,4,4,0,1,"651.02701","","w","","true","0","46","up","down","1","w","1","0","1666203013596.53","","","true","60","46","0.583333333333333","0.2","false"
"","html-keyboard-response",177,444142,"0.0-6.0-1.47-0.47",81,20,FALSE,1666202568453,750,"q","q","Only if I get the answer right","You win money","A fixed time limit",5,"Female","no","no",0,0,0,0,0,0,0,0,1,0,0,0,0,0,1,0,0,0,0,1,0,0,2,2,0,0,1,1,1,2,2,2,2,0,1,2,1,1,0,0,0,1,1,0,0,2,3,1,3,1,2,3,4,3,2,3,0,3,3,4,4,0,1,"474","<br><br><br><br><table><tr><td><img src=static/images/oddball_down.png></td><td><img src=static/images/oddball_up.png></td><td><img src=static/images/oddball_up.png></td></tr></table>","81","1","","","","","","","","","","","","","","","","","",""
"","html-keyboard-response",178,444268.651532722,"0.0-6.0-1.47-1.47",81,20,FALSE,1666202568453,750,"q","q","Only if I get the answer right","You win money","A fixed time limit",5,"Female","no","no",0,0,0,0,0,0,0,0,1,0,0,0,0,0,1,0,0,0,0,1,0,0,2,2,0,0,1,1,1,2,2,2,2,0,1,2,1,1,0,0,0,1,1,0,0,2,3,1,3,1,2,3,4,3,2,3,0,3,3,4,4,0,1,"490.652","","q","","true","0","47","up","down","0","q","1","0","1666203014094.65","","","true","60","47","0.6","0.2","false"
"","html-keyboard-response",179,444734,"0.0-6.0-1.48-0.48",81,20,FALSE,1666202568453,750,"q","q","Only if I get the answer right","You win money","A fixed time limit",5,"Female","no","no",0,0,0,0,0,0,0,0,1,0,0,0,0,0,1,0,0,0,0,1,0,0,2,2,0,0,1,1,1,2,2,2,2,0,1,2,1,1,0,0,0,1,1,0,0,2,3,1,3,1,2,3,4,3,2,3,0,3,3,4,4,0,1,"481.60000002384186","<br><br><br><br><table><tr><td><img src=static/images/oddball_up.png></td><td><img src=static/images/oddball_down.png></td><td><img src=static/images/oddball_up.png></td></tr></table>","87","1","","","","","","","","","","","","","","","","","",""
"","html-keyboard-response",180,444685.152705063,"0.0-6.0-1.48-1.48",81,20,FALSE,1666202568453,750,"q","q","Only if I get the answer right","You win money","A fixed time limit",5,"Female","no","no",0,0,0,0,0,0,0,0,1,0,0,0,0,0,1,0,0,0,0,1,0,0,2,2,0,0,1,1,1,2,2,2,2,0,1,2,1,1,0,0,0,1,1,0,0,2,3,1,3,1,2,3,4,3,2,3,0,3,3,4,4,0,1,"330.752705087073","","w","","true","0","48","up","down","1","w","1","0","1666203014511.15","","","true","60","48","0.616666666666667","0.2","false"
"","html-keyboard-response",181,445358,"0.0-6.0-1.49-0.49",81,20,FALSE,1666202568453,750,"q","q","Only if I get the answer right","You win money","A fixed time limit",5,"Female","no","no",0,0,0,0,0,0,0,0,1,0,0,0,0,0,1,0,0,0,0,1,0,0,2,2,0,0,1,1,1,2,2,2,2,0,1,2,1,1,0,0,0,1,1,0,0,2,3,1,3,1,2,3,4,3,2,3,0,3,3,4,4,0,1,"521.2999999523163","<br><br><br><br><table><tr><td><img src=static/images/oddball_down.png></td><td><img src=static/images/oddball_up.png></td><td><img src=static/images/oddball_up.png></td></tr></table>","81","1","","","","","","","","","","","","","","","","","",""
"","html-keyboard-response",182,445431.541905493,"0.0-6.0-1.49-1.49",81,20,FALSE,1666202568453,750,"q","q","Only if I get the answer right","You win money","A fixed time limit",5,"Female","no","no",0,0,0,0,0,0,0,0,1,0,0,0,0,0,1,0,0,0,0,1,0,0,2,2,0,0,1,1,1,2,2,2,2,0,1,2,1,1,0,0,0,1,1,0,0,2,3,1,3,1,2,3,4,3,2,3,0,3,3,4,4,0,1,"481.841905445416","","q","","true","0","49","up","down","0","q","1","0","1666203015257.54","","","true","60","49","0.633333333333333","0.2","false"
"","html-keyboard-response",183,445998,"0.0-6.0-1.50-0.50",81,20,FALSE,1666202568453,750,"q","q","Only if I get the answer right","You win money","A fixed time limit",5,"Female","no","no",0,0,0,0,0,0,0,0,1,0,0,0,0,0,1,0,0,0,0,1,0,0,2,2,0,0,1,1,1,2,2,2,2,0,1,2,1,1,0,0,0,1,1,0,0,2,3,1,3,1,2,3,4,3,2,3,0,3,3,4,4,0,1,"526.7999999523163","<br><br><br><br><table><tr><td><img src=static/images/oddball_down.png></td><td><img src=static/images/oddball_down.png></td><td><img src=static/images/oddball_up.png></td></tr></table>","69","1","","","","","","","","","","","","","","","","","",""
"","html-keyboard-response",184,446074.094999663,"0.0-6.0-1.50-1.50",81,20,FALSE,1666202568453,750,"q","q","Only if I get the answer right","You win money","A fixed time limit",5,"Female","no","no",0,0,0,0,0,0,0,0,1,0,0,0,0,0,1,0,0,0,0,1,0,0,2,2,0,0,1,1,1,2,2,2,2,0,1,2,1,1,0,0,0,1,1,0,0,2,3,1,3,1,2,3,4,3,2,3,0,3,3,4,4,0,1,"498.894999615668","","e","","true","0","50","down","up","2","e","1","0","1666203015900.09","","","true","60","50","0.65","0.2","false"
"","html-keyboard-response",185,446622,"0.0-6.0-1.51-0.51",81,20,FALSE,1666202568453,750,"q","q","Only if I get the answer right","You win money","A fixed time limit",5,"Female","no","no",0,0,0,0,0,0,0,0,1,0,0,0,0,0,1,0,0,0,0,1,0,0,2,2,0,0,1,1,1,2,2,2,2,0,1,2,1,1,0,0,0,1,1,0,0,2,3,1,3,1,2,3,4,3,2,3,0,3,3,4,4,0,1,"519.2999999523163","<br><br><br><br><table><tr><td><img src=static/images/oddball_down.png></td><td><img src=static/images/oddball_up.png></td><td><img src=static/images/oddball_up.png></td></tr></table>","81","1","","","","","","","","","","","","","","","","","",""
"","html-keyboard-response",186,446803.791996131,"0.0-6.0-1.51-1.51",81,20,FALSE,1666202568453,750,"q","q","Only if I get the answer right","You win money","A fixed time limit",5,"Female","no","no",0,0,0,0,0,0,0,0,1,0,0,0,0,0,1,0,0,0,0,1,0,0,2,2,0,0,1,1,1,2,2,2,2,0,1,2,1,1,0,0,0,1,1,0,0,2,3,1,3,1,2,3,4,3,2,3,0,3,3,4,4,0,1,"584.091996083368","","q","","true","0","51","up","down","0","q","1","0","1666203016629.79","","","true","60","51","0.666666666666667","0.2","false"
"","html-keyboard-response",187,447496,"0.0-6.0-1.52-0.52",81,20,FALSE,1666202568453,750,"q","q","Only if I get the answer right","You win money","A fixed time limit",5,"Female","no","no",0,0,0,0,0,0,0,0,1,0,0,0,0,0,1,0,0,0,0,1,0,0,2,2,0,0,1,1,1,2,2,2,2,0,1,2,1,1,0,0,0,1,1,0,0,2,3,1,3,1,2,3,4,3,2,3,0,3,3,4,4,0,1,"null","<br><br><br><br><table><tr><td><img src=static/images/oddball_down.png></td><td><img src=static/images/oddball_up.png></td><td><img src=static/images/oddball_up.png></td></tr></table>","null","","","","","","","","","","","","","","","","","","",""
"","html-keyboard-response",188,447612,"0.0-6.0-1.52-1.52",81,20,FALSE,1666202568453,750,"q","q","Only if I get the answer right","You win money","A fixed time limit",5,"Female","no","no",0,0,0,0,0,0,0,0,1,0,0,0,0,0,1,0,0,0,0,1,0,0,2,2,0,0,1,1,1,2,2,2,2,0,1,2,1,1,0,0,0,1,1,0,0,2,3,1,3,1,2,3,4,3,2,3,0,3,3,4,4,0,1,"null","","null","","true","0","52","up","down","0","q","0","0","1666203017438","","","true","60","52","0.683333333333333","0.2","true"
"","html-keyboard-response",189,448126,"0.0-6.0-1.53-0.53",81,20,FALSE,1666202568453,750,"q","q","Only if I get the answer right","You win money","A fixed time limit",5,"Female","no","no",0,0,0,0,0,0,0,0,1,0,0,0,0,0,1,0,0,0,0,1,0,0,2,2,0,0,1,1,1,2,2,2,2,0,1,2,1,1,0,0,0,1,1,0,0,2,3,1,3,1,2,3,4,3,2,3,0,3,3,4,4,0,1,"513.0999999046326","<br><br><br><br><table><tr><td><img src=static/images/oddball_down.png></td><td><img src=static/images/oddball_down.png></td><td><img src=static/images/oddball_up.png></td></tr></table>","69","1","","","","","","","","","","","","","","","","","",""
"","html-keyboard-response",190,448271.768224983,"0.0-6.0-1.53-1.53",81,20,FALSE,1666202568453,750,"q","q","Only if I get the answer right","You win money","A fixed time limit",5,"Female","no","no",0,0,0,0,0,0,0,0,1,0,0,0,0,0,1,0,0,0,0,1,0,0,2,2,0,0,1,1,1,2,2,2,2,0,1,2,1,1,0,0,0,1,1,0,0,2,3,1,3,1,2,3,4,3,2,3,0,3,3,4,4,0,1,"546.868224888015","","e","","true","0","53","down","up","2","e","1","0","1666203018097.77","","","true","60","53","0.683333333333333","0.2","false"
"","html-keyboard-response",191,448790,"0.0-6.0-1.54-0.54",81,20,FALSE,1666202568453,750,"q","q","Only if I get the answer right","You win money","A fixed time limit",5,"Female","no","no",0,0,0,0,0,0,0,0,1,0,0,0,0,0,1,0,0,0,0,1,0,0,2,2,0,0,1,1,1,2,2,2,2,0,1,2,1,1,0,0,0,1,1,0,0,2,3,1,3,1,2,3,4,3,2,3,0,3,3,4,4,0,1,"551.2999999523163","<br><br><br><br><table><tr><td><img src=static/images/oddball_up.png></td><td><img src=static/images/oddball_down.png></td><td><img src=static/images/oddball_up.png></td></tr></table>","87","1","","","","","","","","","","","","","","","","","",""
"","html-keyboard-response",192,448719.140351282,"0.0-6.0-1.54-1.54",81,20,FALSE,1666202568453,750,"q","q","Only if I get the answer right","You win money","A fixed time limit",5,"Female","no","no",0,0,0,0,0,0,0,0,1,0,0,0,0,0,1,0,0,0,0,1,0,0,2,2,0,0,1,1,1,2,2,2,2,0,1,2,1,1,0,0,0,1,1,0,0,2,3,1,3,1,2,3,4,3,2,3,0,3,3,4,4,0,1,"375.440351234155","","w","","true","0","54","up","down","1","w","1","0","1666203018545.14","","","true","60","54","0.7","0.2","false"
"","html-keyboard-response",193,449398,"0.0-6.0-1.55-0.55",81,20,FALSE,1666202568453,750,"q","q","Only if I get the answer right","You win money","A fixed time limit",5,"Female","no","no",0,0,0,0,0,0,0,0,1,0,0,0,0,0,1,0,0,0,0,1,0,0,2,2,0,0,1,1,1,2,2,2,2,0,1,2,1,1,0,0,0,1,1,0,0,2,3,1,3,1,2,3,4,3,2,3,0,3,3,4,4,0,1,"502.60000002384186","<br><br><br><br><table><tr><td><img src=static/images/oddball_down.png></td><td><img src=static/images/oddball_down.png></td><td><img src=static/images/oddball_up.png></td></tr></table>","69","1","","","","","","","","","","","","","","","","","",""
"","html-keyboard-response",194,449581.033181197,"0.0-6.0-1.55-1.55",81,20,FALSE,1666202568453,750,"q","q","Only if I get the answer right","You win money","A fixed time limit",5,"Female","no","no",0,0,0,0,0,0,0,0,1,0,0,0,0,0,1,0,0,0,0,1,0,0,2,2,0,0,1,1,1,2,2,2,2,0,1,2,1,1,0,0,0,1,1,0,0,2,3,1,3,1,2,3,4,3,2,3,0,3,3,4,4,0,1,"572.633181220651","","e","","true","0","55","down","up","2","e","1","0","1666203019407.03","","","true","60","55","0.716666666666667","0.2","false"
"","html-keyboard-response",195,450062,"0.0-6.0-1.56-0.56",81,20,FALSE,1666202568453,750,"q","q","Only if I get the answer right","You win money","A fixed time limit",5,"Female","no","no",0,0,0,0,0,0,0,0,1,0,0,0,0,0,1,0,0,0,0,1,0,0,2,2,0,0,1,1,1,2,2,2,2,0,1,2,1,1,0,0,0,1,1,0,0,2,3,1,3,1,2,3,4,3,2,3,0,3,3,4,4,0,1,"549.8999999761581","<br><br><br><br><table><tr><td><img src=static/images/oddball_up.png></td><td><img src=static/images/oddball_up.png></td><td><img src=static/images/oddball_down.png></td></tr></table>","69","1","","","","","","","","","","","","","","","","","",""
"","html-keyboard-response",196,450098.95496157,"0.0-6.0-1.56-1.56",81,20,FALSE,1666202568453,750,"q","q","Only if I get the answer right","You win money","A fixed time limit",5,"Female","no","no",0,0,0,0,0,0,0,0,1,0,0,0,0,0,1,0,0,0,0,1,0,0,2,2,0,0,1,1,1,2,2,2,2,0,1,2,1,1,0,0,0,1,1,0,0,2,3,1,3,1,2,3,4,3,2,3,0,3,3,4,4,0,1,"470.854961545955","","e","","true","0","56","up","down","2","e","1","0","1666203019924.96","","","true","60","56","0.733333333333333","0.2","false"
"","html-keyboard-response",197,450758,"0.0-6.0-1.57-0.57",81,20,FALSE,1666202568453,750,"q","q","Only if I get the answer right","You win money","A fixed time limit",5,"Female","no","no",0,0,0,0,0,0,0,0,1,0,0,0,0,0,1,0,0,0,0,1,0,0,2,2,0,0,1,1,1,2,2,2,2,0,1,2,1,1,0,0,0,1,1,0,0,2,3,1,3,1,2,3,4,3,2,3,0,3,3,4,4,0,1,"579.1000000238419","<br><br><br><br><table><tr><td><img src=static/images/oddball_up.png></td><td><img src=static/images/oddball_down.png></td><td><img src=static/images/oddball_up.png></td></tr></table>","87","1","","","","","","","","","","","","","","","","","",""
"","html-keyboard-response",198,450830.895272023,"0.0-6.0-1.57-1.57",81,20,FALSE,1666202568453,750,"q","q","Only if I get the answer right","You win money","A fixed time limit",5,"Female","no","no",0,0,0,0,0,0,0,0,1,0,0,0,0,0,1,0,0,0,0,1,0,0,2,2,0,0,1,1,1,2,2,2,2,0,1,2,1,1,0,0,0,1,1,0,0,2,3,1,3,1,2,3,4,3,2,3,0,3,3,4,4,0,1,"545.995272046468","","w","","true","0","57","up","down","1","w","1","0","1666203020656.9","","","true","60","57","0.75","0.2","false"
