"success","trial_type","trial_index","time_elapsed","internal_node_id","subject","age","sex","date","deadline","instQ1","instQ2","instQ3","instQ4","instQ5","totalInstQ","gender","strategy","comments","DASS1_s","DASS2_a","DASS3_d","DASS4_a","DASS5_d","DASS6_s","DASS7_a","DASS8_s","DASS9_a","DASS10_d","DASS11_s","DASS12_s","DASS13_d","DASS14_s","DASS15_a","DASS16_d","DASS17_d","DASS18_s","DASS19_a","DASS20_a","DASS21_d","BB1","BB2","BB3","BB4","BB5","BB6","BB7","BB8","BB9","BB10","BB11","BB12","BB13","BB14","BB15","BB16","BB17","BB18","BB19","BB20","BB21","BB22","BB23","BB24","NFC1","NFC2","NFC3","NFC4","NFC5","NFC6","NFC7","NFC8","NFC9","NFC10","NFC11","NFC12","NFC13","NFC14","NFC15","NFC16","NFC17","NFC18","rt","stimulus","key_press","npress","isDataTrial","block","trialinblock","common","odd","oddidx","correct_ans","accuracy","totalTokens","timestamp","responses","question_order","showprog","blocklen","trial","progress","reward","timedout"
"true","fullscreen",0,2956,"0.0-0.0",57,19,"f",1664222295065,750,"q","q","Only if I get the answer right","You win money","A fixed time limit",5,"female","no","after a while it becomes nonconscious and you don't even realize what you're pressing",2,0,3,1,1,3,0,2,3,1,3,3,1,1,2,1,0,0,0,1,0,0,3,2,1,2,2,1,0,2,1,0,2,0,0,2,0,0,0,0,2,2,3,0,1,1,3,1,2,0,1,1,0,1,2,2,0,1,3,3,2,1,3,"","","","","","","","","","","","","","","","","","","","","",""
"","image-keyboard-response",1,152522,"0.0-1.0-0.0",57,19,"f",1664222295065,750,"q","q","Only if I get the answer right","You win money","A fixed time limit",5,"female","no","after a while it becomes nonconscious and you don't even realize what you're pressing",2,0,3,1,1,3,0,2,3,1,3,3,1,1,2,1,0,0,0,1,0,0,3,2,1,2,2,1,0,2,1,0,2,0,0,2,0,0,0,0,2,2,3,0,1,1,3,1,2,0,1,1,0,1,2,2,0,1,3,3,2,1,3,"149560","static/images/instructions/Slide1.png","39","","","","","","","","","","","","","","","","","","",""
"","image-keyboard-response",2,155889,"0.0-1.1-0.1",57,19,"f",1664222295065,750,"q","q","Only if I get the answer right","You win money","A fixed time limit",5,"female","no","after a while it becomes nonconscious and you don't even realize what you're pressing",2,0,3,1,1,3,0,2,3,1,3,3,1,1,2,1,0,0,0,1,0,0,3,2,1,2,2,1,0,2,1,0,2,0,0,2,0,0,0,0,2,2,3,0,1,1,3,1,2,0,1,1,0,1,2,2,0,1,3,3,2,1,3,"3366.2000000476837","static/images/instructions/Slide2.png","39","","","","","","","","","","","","","","","","","","",""
"","image-keyboard-response",3,166033,"0.0-1.2-0.2",57,19,"f",1664222295065,750,"q","q","Only if I get the answer right","You win money","A fixed time limit",5,"female","no","after a while it becomes nonconscious and you don't even realize what you're pressing",2,0,3,1,1,3,0,2,3,1,3,3,1,1,2,1,0,0,0,1,0,0,3,2,1,2,2,1,0,2,1,0,2,0,0,2,0,0,0,0,2,2,3,0,1,1,3,1,2,0,1,1,0,1,2,2,0,1,3,3,2,1,3,"10143.300000011921","static/images/instructions/Slide3.png","39","","","","","","","","","","","","","","","","","","",""
"","image-keyboard-response",4,168313,"0.0-1.3-0.3",57,19,"f",1664222295065,750,"q","q","Only if I get the answer right","You win money","A fixed time limit",5,"female","no","after a while it becomes nonconscious and you don't even realize what you're pressing",2,0,3,1,1,3,0,2,3,1,3,3,1,1,2,1,0,0,0,1,0,0,3,2,1,2,2,1,0,2,1,0,2,0,0,2,0,0,0,0,2,2,3,0,1,1,3,1,2,0,1,1,0,1,2,2,0,1,3,3,2,1,3,"2279","static/images/instructions/Slide4.png","39","","","","","","","","","","","","","","","","","","",""
"","image-keyboard-response",5,170145,"0.0-1.4-0.4",57,19,"f",1664222295065,750,"q","q","Only if I get the answer right","You win money","A fixed time limit",5,"female","no","after a while it becomes nonconscious and you don't even realize what you're pressing",2,0,3,1,1,3,0,2,3,1,3,3,1,1,2,1,0,0,0,1,0,0,3,2,1,2,2,1,0,2,1,0,2,0,0,2,0,0,0,0,2,2,3,0,1,1,3,1,2,0,1,1,0,1,2,2,0,1,3,3,2,1,3,"1831.5","static/images/instructions/Slide5.png","39","","","","","","","","","","","","","","","","","","",""
"","image-keyboard-response",6,171361,"0.0-1.5-0.5",57,19,"f",1664222295065,750,"q","q","Only if I get the answer right","You win money","A fixed time limit",5,"female","no","after a while it becomes nonconscious and you don't even realize what you're pressing",2,0,3,1,1,3,0,2,3,1,3,3,1,1,2,1,0,0,0,1,0,0,3,2,1,2,2,1,0,2,1,0,2,0,0,2,0,0,0,0,2,2,3,0,1,1,3,1,2,0,1,1,0,1,2,2,0,1,3,3,2,1,3,"1215.199999988079","static/images/instructions/Slide6.png","39","","","","","","","","","","","","","","","","","","",""
"","image-keyboard-response",7,200409,"0.0-1.6-0.6",57,19,"f",1664222295065,750,"q","q","Only if I get the answer right","You win money","A fixed time limit",5,"female","no","after a while it becomes nonconscious and you don't even realize what you're pressing",2,0,3,1,1,3,0,2,3,1,3,3,1,1,2,1,0,0,0,1,0,0,3,2,1,2,2,1,0,2,1,0,2,0,0,2,0,0,0,0,2,2,3,0,1,1,3,1,2,0,1,1,0,1,2,2,0,1,3,3,2,1,3,"29047.600000023842","static/images/instructions/Slide7.png","39","","","","","","","","","","","","","","","","","","",""
"","html-keyboard-response",8,203969,"0.0-2.0-0.0",57,19,"f",1664222295065,750,"q","q","Only if I get the answer right","You win money","A fixed time limit",5,"female","no","after a while it becomes nonconscious and you don't even realize what you're pressing",2,0,3,1,1,3,0,2,3,1,3,3,1,1,2,1,0,0,0,1,0,0,3,2,1,2,2,1,0,2,1,0,2,0,0,2,0,0,0,0,2,2,3,0,1,1,3,1,2,0,1,1,0,1,2,2,0,1,3,3,2,1,3,"3547.800000011921","<br><br><br><br><table><tr><td><img src=static/images/oddball_down.png></td><td><img src=static/images/oddball_up.png></td><td><img src=static/images/oddball_down.png></td></tr></table>","87","1","","","","","","","","","","","","","","","","","",""
"","html-keyboard-response",9,206484,"0.0-2.0-1.0",57,19,"f",1664222295065,750,"q","q","Only if I get the answer right","You win money","A fixed time limit",5,"female","no","after a while it becomes nonconscious and you don't even realize what you're pressing",2,0,3,1,1,3,0,2,3,1,3,3,1,1,2,1,0,0,0,1,0,0,3,2,1,2,2,1,0,2,1,0,2,0,0,2,0,0,0,0,2,2,3,0,1,1,3,1,2,0,1,1,0,1,2,2,0,1,3,3,2,1,3,"null","<div style=""font-size:75px;""><b>Correct</b></div>","null","","","","","","","","","","","","","","","","","","",""
"","html-keyboard-response",10,207499,"0.0-2.0-2.0",57,19,"f",1664222295065,750,"q","q","Only if I get the answer right","You win money","A fixed time limit",5,"female","no","after a while it becomes nonconscious and you don't even realize what you're pressing",2,0,3,1,1,3,0,2,3,1,3,3,1,1,2,1,0,0,0,1,0,0,3,2,1,2,2,1,0,2,1,0,2,0,0,2,0,0,0,0,2,2,3,0,1,1,3,1,2,0,1,1,0,1,2,2,0,1,3,3,2,1,3,"3547.800000011921","","w","","true","practice","0","down","up","1","w","1","0","1664222502907","","","","","","","",""
"","html-keyboard-response",11,208225,"0.0-2.1-0.1",57,19,"f",1664222295065,750,"q","q","Only if I get the answer right","You win money","A fixed time limit",5,"female","no","after a while it becomes nonconscious and you don't even realize what you're pressing",2,0,3,1,1,3,0,2,3,1,3,3,1,1,2,1,0,0,0,1,0,0,3,2,1,2,2,1,0,2,1,0,2,0,0,2,0,0,0,0,2,2,3,0,1,1,3,1,2,0,1,1,0,1,2,2,0,1,3,3,2,1,3,"725.3999999761581","<br><br><br><br><table><tr><td><img src=static/images/oddball_up.png></td><td><img src=static/images/oddball_down.png></td><td><img src=static/images/oddball_up.png></td></tr></table>","87","1","","","","","","","","","","","","","","","","","",""
"","html-keyboard-response",12,210735,"0.0-2.1-1.1",57,19,"f",1664222295065,750,"q","q","Only if I get the answer right","You win money","A fixed time limit",5,"female","no","after a while it becomes nonconscious and you don't even realize what you're pressing",2,0,3,1,1,3,0,2,3,1,3,3,1,1,2,1,0,0,0,1,0,0,3,2,1,2,2,1,0,2,1,0,2,0,0,2,0,0,0,0,2,2,3,0,1,1,3,1,2,0,1,1,0,1,2,2,0,1,3,3,2,1,3,"null","<div style=""font-size:75px;""><b>Correct</b></div>","null","","","","","","","","","","","","","","","","","","",""
"","html-keyboard-response",13,211740,"0.0-2.1-2.1",57,19,"f",1664222295065,750,"q","q","Only if I get the answer right","You win money","A fixed time limit",5,"female","no","after a while it becomes nonconscious and you don't even realize what you're pressing",2,0,3,1,1,3,0,2,3,1,3,3,1,1,2,1,0,0,0,1,0,0,3,2,1,2,2,1,0,2,1,0,2,0,0,2,0,0,0,0,2,2,3,0,1,1,3,1,2,0,1,1,0,1,2,2,0,1,3,3,2,1,3,"725.3999999761581","","w","","true","practice","1","up","down","1","w","1","0","1664222507148","","","","","","","",""
"","html-keyboard-response",14,212433,"0.0-2.2-0.2",57,19,"f",1664222295065,750,"q","q","Only if I get the answer right","You win money","A fixed time limit",5,"female","no","after a while it becomes nonconscious and you don't even realize what you're pressing",2,0,3,1,1,3,0,2,3,1,3,3,1,1,2,1,0,0,0,1,0,0,3,2,1,2,2,1,0,2,1,0,2,0,0,2,0,0,0,0,2,2,3,0,1,1,3,1,2,0,1,1,0,1,2,2,0,1,3,3,2,1,3,"692","<br><br><br><br><table><tr><td><img src=static/images/oddball_up.png></td><td><img src=static/images/oddball_up.png></td><td><img src=static/images/oddball_down.png></td></tr></table>","69","1","","","","","","","","","","","","","","","","","",""
"","html-keyboard-response",15,214945,"0.0-2.2-1.2",57,19,"f",1664222295065,750,"q","q","Only if I get the answer right","You win money","A fixed time limit",5,"female","no","after a while it becomes nonconscious and you don't even realize what you're pressing",2,0,3,1,1,3,0,2,3,1,3,3,1,1,2,1,0,0,0,1,0,0,3,2,1,2,2,1,0,2,1,0,2,0,0,2,0,0,0,0,2,2,3,0,1,1,3,1,2,0,1,1,0,1,2,2,0,1,3,3,2,1,3,"null","<div style=""font-size:75px;""><b>Correct</b></div>","null","","","","","","","","","","","","","","","","","","",""
"","html-keyboard-response",16,215953,"0.0-2.2-2.2",57,19,"f",1664222295065,750,"q","q","Only if I get the answer right","You win money","A fixed time limit",5,"female","no","after a while it becomes nonconscious and you don't even realize what you're pressing",2,0,3,1,1,3,0,2,3,1,3,3,1,1,2,1,0,0,0,1,0,0,3,2,1,2,2,1,0,2,1,0,2,0,0,2,0,0,0,0,2,2,3,0,1,1,3,1,2,0,1,1,0,1,2,2,0,1,3,3,2,1,3,"692","","e","","true","practice","2","up","down","2","e","1","0","1664222511361","","","","","","","",""
"","html-keyboard-response",17,216389,"0.0-2.3-0.3",57,19,"f",1664222295065,750,"q","q","Only if I get the answer right","You win money","A fixed time limit",5,"female","no","after a while it becomes nonconscious and you don't even realize what you're pressing",2,0,3,1,1,3,0,2,3,1,3,3,1,1,2,1,0,0,0,1,0,0,3,2,1,2,2,1,0,2,1,0,2,0,0,2,0,0,0,0,2,2,3,0,1,1,3,1,2,0,1,1,0,1,2,2,0,1,3,3,2,1,3,"436","<br><br><br><br><table><tr><td><img src=static/images/oddball_up.png></td><td><img src=static/images/oddball_down.png></td><td><img src=static/images/oddball_down.png></td></tr></table>","87","1","","","","","","","","","","","","","","","","","",""
"","html-keyboard-response",18,218896,"0.0-2.3-1.3",57,19,"f",1664222295065,750,"q","q","Only if I get the answer right","You win money","A fixed time limit",5,"female","no","after a while it becomes nonconscious and you don't even realize what you're pressing",2,0,3,1,1,3,0,2,3,1,3,3,1,1,2,1,0,0,0,1,0,0,3,2,1,2,2,1,0,2,1,0,2,0,0,2,0,0,0,0,2,2,3,0,1,1,3,1,2,0,1,1,0,1,2,2,0,1,3,3,2,1,3,"null","<div style=""font-size:75px;""><b>Incorrect</b></div><br><br><div font-size:50px;"">The left shape was the odd one out, so you needed to press Q!</div>","null","","","","","","","","","","","","","","","","","","",""
"","html-keyboard-response",19,219910,"0.0-2.3-2.3",57,19,"f",1664222295065,750,"q","q","Only if I get the answer right","You win money","A fixed time limit",5,"female","no","after a while it becomes nonconscious and you don't even realize what you're pressing",2,0,3,1,1,3,0,2,3,1,3,3,1,1,2,1,0,0,0,1,0,0,3,2,1,2,2,1,0,2,1,0,2,0,0,2,0,0,0,0,2,2,3,0,1,1,3,1,2,0,1,1,0,1,2,2,0,1,3,3,2,1,3,"436","","w","","true","practice","3","down","up","0","q","0","0","1664222515318","","","","","","","",""
"","html-keyboard-response",20,220605,"0.0-2.4-0.4",57,19,"f",1664222295065,750,"q","q","Only if I get the answer right","You win money","A fixed time limit",5,"female","no","after a while it becomes nonconscious and you don't even realize what you're pressing",2,0,3,1,1,3,0,2,3,1,3,3,1,1,2,1,0,0,0,1,0,0,3,2,1,2,2,1,0,2,1,0,2,0,0,2,0,0,0,0,2,2,3,0,1,1,3,1,2,0,1,1,0,1,2,2,0,1,3,3,2,1,3,"694.8000000119209","<br><br><br><br><table><tr><td><img src=static/images/oddball_down.png></td><td><img src=static/images/oddball_up.png></td><td><img src=static/images/oddball_down.png></td></tr></table>","87","1","","","","","","","","","","","","","","","","","",""
"","html-keyboard-response",21,223113,"0.0-2.4-1.4",57,19,"f",1664222295065,750,"q","q","Only if I get the answer right","You win money","A fixed time limit",5,"female","no","after a while it becomes nonconscious and you don't even realize what you're pressing",2,0,3,1,1,3,0,2,3,1,3,3,1,1,2,1,0,0,0,1,0,0,3,2,1,2,2,1,0,2,1,0,2,0,0,2,0,0,0,0,2,2,3,0,1,1,3,1,2,0,1,1,0,1,2,2,0,1,3,3,2,1,3,"null","<div style=""font-size:75px;""><b>Correct</b></div>","null","","","","","","","","","","","","","","","","","","",""
"","html-keyboard-response",22,224123,"0.0-2.4-2.4",57,19,"f",1664222295065,750,"q","q","Only if I get the answer right","You win money","A fixed time limit",5,"female","no","after a while it becomes nonconscious and you don't even realize what you're pressing",2,0,3,1,1,3,0,2,3,1,3,3,1,1,2,1,0,0,0,1,0,0,3,2,1,2,2,1,0,2,1,0,2,0,0,2,0,0,0,0,2,2,3,0,1,1,3,1,2,0,1,1,0,1,2,2,0,1,3,3,2,1,3,"694.8000000119209","","w","","true","practice","4","down","up","1","w","1","0","1664222519531","","","","","","","",""
"","html-keyboard-response",23,224941,"0.0-2.5-0.5",57,19,"f",1664222295065,750,"q","q","Only if I get the answer right","You win money","A fixed time limit",5,"female","no","after a while it becomes nonconscious and you don't even realize what you're pressing",2,0,3,1,1,3,0,2,3,1,3,3,1,1,2,1,0,0,0,1,0,0,3,2,1,2,2,1,0,2,1,0,2,0,0,2,0,0,0,0,2,2,3,0,1,1,3,1,2,0,1,1,0,1,2,2,0,1,3,3,2,1,3,"818.1000000238419","<br><br><br><br><table><tr><td><img src=static/images/oddball_down.png></td><td><img src=static/images/oddball_up.png></td><td><img src=static/images/oddball_up.png></td></tr></table>","81","1","","","","","","","","","","","","","","","","","",""
"","html-keyboard-response",24,227455,"0.0-2.5-1.5",57,19,"f",1664222295065,750,"q","q","Only if I get the answer right","You win money","A fixed time limit",5,"female","no","after a while it becomes nonconscious and you don't even realize what you're pressing",2,0,3,1,1,3,0,2,3,1,3,3,1,1,2,1,0,0,0,1,0,0,3,2,1,2,2,1,0,2,1,0,2,0,0,2,0,0,0,0,2,2,3,0,1,1,3,1,2,0,1,1,0,1,2,2,0,1,3,3,2,1,3,"null","<div style=""font-size:75px;""><b>Correct</b></div>","null","","","","","","","","","","","","","","","","","","",""
"","html-keyboard-response",25,228460,"0.0-2.5-2.5",57,19,"f",1664222295065,750,"q","q","Only if I get the answer right","You win money","A fixed time limit",5,"female","no","after a while it becomes nonconscious and you don't even realize what you're pressing",2,0,3,1,1,3,0,2,3,1,3,3,1,1,2,1,0,0,0,1,0,0,3,2,1,2,2,1,0,2,1,0,2,0,0,2,0,0,0,0,2,2,3,0,1,1,3,1,2,0,1,1,0,1,2,2,0,1,3,3,2,1,3,"818.1000000238419","","q","","true","practice","5","up","down","0","q","1","0","1664222523868","","","","","","","",""
"","html-keyboard-response",26,229094,"0.0-2.6-0.6",57,19,"f",1664222295065,750,"q","q","Only if I get the answer right","You win money","A fixed time limit",5,"female","no","after a while it becomes nonconscious and you don't even realize what you're pressing",2,0,3,1,1,3,0,2,3,1,3,3,1,1,2,1,0,0,0,1,0,0,3,2,1,2,2,1,0,2,1,0,2,0,0,2,0,0,0,0,2,2,3,0,1,1,3,1,2,0,1,1,0,1,2,2,0,1,3,3,2,1,3,"633.5","<br><br><br><br><table><tr><td><img src=static/images/oddball_up.png></td><td><img src=static/images/oddball_up.png></td><td><img src=static/images/oddball_down.png></td></tr></table>","69","1","","","","","","","","","","","","","","","","","",""
"","html-keyboard-response",27,231597,"0.0-2.6-1.6",57,19,"f",1664222295065,750,"q","q","Only if I get the answer right","You win money","A fixed time limit",5,"female","no","after a while it becomes nonconscious and you don't even realize what you're pressing",2,0,3,1,1,3,0,2,3,1,3,3,1,1,2,1,0,0,0,1,0,0,3,2,1,2,2,1,0,2,1,0,2,0,0,2,0,0,0,0,2,2,3,0,1,1,3,1,2,0,1,1,0,1,2,2,0,1,3,3,2,1,3,"null","<div style=""font-size:75px;""><b>Correct</b></div>","null","","","","","","","","","","","","","","","","","","",""
"","html-keyboard-response",28,232602,"0.0-2.6-2.6",57,19,"f",1664222295065,750,"q","q","Only if I get the answer right","You win money","A fixed time limit",5,"female","no","after a while it becomes nonconscious and you don't even realize what you're pressing",2,0,3,1,1,3,0,2,3,1,3,3,1,1,2,1,0,0,0,1,0,0,3,2,1,2,2,1,0,2,1,0,2,0,0,2,0,0,0,0,2,2,3,0,1,1,3,1,2,0,1,1,0,1,2,2,0,1,3,3,2,1,3,"633.5","","e","","true","practice","6","up","down","2","e","1","0","1664222528010","","","","","","","",""
"","html-keyboard-response",29,233125,"0.0-2.7-0.7",57,19,"f",1664222295065,750,"q","q","Only if I get the answer right","You win money","A fixed time limit",5,"female","no","after a while it becomes nonconscious and you don't even realize what you're pressing",2,0,3,1,1,3,0,2,3,1,3,3,1,1,2,1,0,0,0,1,0,0,3,2,1,2,2,1,0,2,1,0,2,0,0,2,0,0,0,0,2,2,3,0,1,1,3,1,2,0,1,1,0,1,2,2,0,1,3,3,2,1,3,"523.1999999880791","<br><br><br><br><table><tr><td><img src=static/images/oddball_up.png></td><td><img src=static/images/oddball_down.png></td><td><img src=static/images/oddball_up.png></td></tr></table>","87","1","","","","","","","","","","","","","","","","","",""
"","html-keyboard-response",30,235632,"0.0-2.7-1.7",57,19,"f",1664222295065,750,"q","q","Only if I get the answer right","You win money","A fixed time limit",5,"female","no","after a while it becomes nonconscious and you don't even realize what you're pressing",2,0,3,1,1,3,0,2,3,1,3,3,1,1,2,1,0,0,0,1,0,0,3,2,1,2,2,1,0,2,1,0,2,0,0,2,0,0,0,0,2,2,3,0,1,1,3,1,2,0,1,1,0,1,2,2,0,1,3,3,2,1,3,"null","<div style=""font-size:75px;""><b>Correct</b></div>","null","","","","","","","","","","","","","","","","","","",""
"","html-keyboard-response",31,236642,"0.0-2.7-2.7",57,19,"f",1664222295065,750,"q","q","Only if I get the answer right","You win money","A fixed time limit",5,"female","no","after a while it becomes nonconscious and you don't even realize what you're pressing",2,0,3,1,1,3,0,2,3,1,3,3,1,1,2,1,0,0,0,1,0,0,3,2,1,2,2,1,0,2,1,0,2,0,0,2,0,0,0,0,2,2,3,0,1,1,3,1,2,0,1,1,0,1,2,2,0,1,3,3,2,1,3,"523.1999999880791","","w","","true","practice","7","up","down","1","w","1","0","1664222532050","","","","","","","",""
"","html-keyboard-response",32,237286,"0.0-2.8-0.8",57,19,"f",1664222295065,750,"q","q","Only if I get the answer right","You win money","A fixed time limit",5,"female","no","after a while it becomes nonconscious and you don't even realize what you're pressing",2,0,3,1,1,3,0,2,3,1,3,3,1,1,2,1,0,0,0,1,0,0,3,2,1,2,2,1,0,2,1,0,2,0,0,2,0,0,0,0,2,2,3,0,1,1,3,1,2,0,1,1,0,1,2,2,0,1,3,3,2,1,3,"642.6000000238419","<br><br><br><br><table><tr><td><img src=static/images/oddball_up.png></td><td><img src=static/images/oddball_down.png></td><td><img src=static/images/oddball_down.png></td></tr></table>","81","1","","","","","","","","","","","","","","","","","",""
"","html-keyboard-response",33,239795,"0.0-2.8-1.8",57,19,"f",1664222295065,750,"q","q","Only if I get the answer right","You win money","A fixed time limit",5,"female","no","after a while it becomes nonconscious and you don't even realize what you're pressing",2,0,3,1,1,3,0,2,3,1,3,3,1,1,2,1,0,0,0,1,0,0,3,2,1,2,2,1,0,2,1,0,2,0,0,2,0,0,0,0,2,2,3,0,1,1,3,1,2,0,1,1,0,1,2,2,0,1,3,3,2,1,3,"null","<div style=""font-size:75px;""><b>Correct</b></div>","null","","","","","","","","","","","","","","","","","","",""
"","html-keyboard-response",34,240799,"0.0-2.8-2.8",57,19,"f",1664222295065,750,"q","q","Only if I get the answer right","You win money","A fixed time limit",5,"female","no","after a while it becomes nonconscious and you don't even realize what you're pressing",2,0,3,1,1,3,0,2,3,1,3,3,1,1,2,1,0,0,0,1,0,0,3,2,1,2,2,1,0,2,1,0,2,0,0,2,0,0,0,0,2,2,3,0,1,1,3,1,2,0,1,1,0,1,2,2,0,1,3,3,2,1,3,"642.6000000238419","","q","","true","practice","8","down","up","0","q","1","0","1664222536207","","","","","","","",""
"","html-keyboard-response",35,241237,"0.0-2.9-0.9",57,19,"f",1664222295065,750,"q","q","Only if I get the answer right","You win money","A fixed time limit",5,"female","no","after a while it becomes nonconscious and you don't even realize what you're pressing",2,0,3,1,1,3,0,2,3,1,3,3,1,1,2,1,0,0,0,1,0,0,3,2,1,2,2,1,0,2,1,0,2,0,0,2,0,0,0,0,2,2,3,0,1,1,3,1,2,0,1,1,0,1,2,2,0,1,3,3,2,1,3,"437.60000002384186","<br><br><br><br><table><tr><td><img src=static/images/oddball_down.png></td><td><img src=static/images/oddball_down.png></td><td><img src=static/images/oddball_up.png></td></tr></table>","69","1","","","","","","","","","","","","","","","","","",""
"","html-keyboard-response",36,243752,"0.0-2.9-1.9",57,19,"f",1664222295065,750,"q","q","Only if I get the answer right","You win money","A fixed time limit",5,"female","no","after a while it becomes nonconscious and you don't even realize what you're pressing",2,0,3,1,1,3,0,2,3,1,3,3,1,1,2,1,0,0,0,1,0,0,3,2,1,2,2,1,0,2,1,0,2,0,0,2,0,0,0,0,2,2,3,0,1,1,3,1,2,0,1,1,0,1,2,2,0,1,3,3,2,1,3,"null","<div style=""font-size:75px;""><b>Correct</b></div>","null","","","","","","","","","","","","","","","","","","",""
"","html-keyboard-response",37,244757,"0.0-2.9-2.9",57,19,"f",1664222295065,750,"q","q","Only if I get the answer right","You win money","A fixed time limit",5,"female","no","after a while it becomes nonconscious and you don't even realize what you're pressing",2,0,3,1,1,3,0,2,3,1,3,3,1,1,2,1,0,0,0,1,0,0,3,2,1,2,2,1,0,2,1,0,2,0,0,2,0,0,0,0,2,2,3,0,1,1,3,1,2,0,1,1,0,1,2,2,0,1,3,3,2,1,3,"437.60000002384186","","e","","true","practice","9","down","up","2","e","1","0","1664222540165","","","","","","","",""
"","html-keyboard-response",38,245309,"0.0-2.10-0.10",57,19,"f",1664222295065,750,"q","q","Only if I get the answer right","You win money","A fixed time limit",5,"female","no","after a while it becomes nonconscious and you don't even realize what you're pressing",2,0,3,1,1,3,0,2,3,1,3,3,1,1,2,1,0,0,0,1,0,0,3,2,1,2,2,1,0,2,1,0,2,0,0,2,0,0,0,0,2,2,3,0,1,1,3,1,2,0,1,1,0,1,2,2,0,1,3,3,2,1,3,"551.5","<br><br><br><br><table><tr><td><img src=static/images/oddball_down.png></td><td><img src=static/images/oddball_up.png></td><td><img src=static/images/oddball_up.png></td></tr></table>","81","1","","","","","","","","","","","","","","","","","",""
"","html-keyboard-response",39,247815,"0.0-2.10-1.10",57,19,"f",1664222295065,750,"q","q","Only if I get the answer right","You win money","A fixed time limit",5,"female","no","after a while it becomes nonconscious and you don't even realize what you're pressing",2,0,3,1,1,3,0,2,3,1,3,3,1,1,2,1,0,0,0,1,0,0,3,2,1,2,2,1,0,2,1,0,2,0,0,2,0,0,0,0,2,2,3,0,1,1,3,1,2,0,1,1,0,1,2,2,0,1,3,3,2,1,3,"null","<div style=""font-size:75px;""><b>Correct</b></div>","null","","","","","","","","","","","","","","","","","","",""
"","html-keyboard-response",40,248831,"0.0-2.10-2.10",57,19,"f",1664222295065,750,"q","q","Only if I get the answer right","You win money","A fixed time limit",5,"female","no","after a while it becomes nonconscious and you don't even realize what you're pressing",2,0,3,1,1,3,0,2,3,1,3,3,1,1,2,1,0,0,0,1,0,0,3,2,1,2,2,1,0,2,1,0,2,0,0,2,0,0,0,0,2,2,3,0,1,1,3,1,2,0,1,1,0,1,2,2,0,1,3,3,2,1,3,"551.5","","q","","true","practice","10","up","down","0","q","1","0","1664222544239","","","","","","","",""
"","html-keyboard-response",41,249406,"0.0-2.11-0.11",57,19,"f",1664222295065,750,"q","q","Only if I get the answer right","You win money","A fixed time limit",5,"female","no","after a while it becomes nonconscious and you don't even realize what you're pressing",2,0,3,1,1,3,0,2,3,1,3,3,1,1,2,1,0,0,0,1,0,0,3,2,1,2,2,1,0,2,1,0,2,0,0,2,0,0,0,0,2,2,3,0,1,1,3,1,2,0,1,1,0,1,2,2,0,1,3,3,2,1,3,"574.0999999642372","<br><br><br><br><table><tr><td><img src=static/images/oddball_down.png></td><td><img src=static/images/oddball_up.png></td><td><img src=static/images/oddball_up.png></td></tr></table>","81","1","","","","","","","","","","","","","","","","","",""
"","html-keyboard-response",42,251917,"0.0-2.11-1.11",57,19,"f",1664222295065,750,"q","q","Only if I get the answer right","You win money","A fixed time limit",5,"female","no","after a while it becomes nonconscious and you don't even realize what you're pressing",2,0,3,1,1,3,0,2,3,1,3,3,1,1,2,1,0,0,0,1,0,0,3,2,1,2,2,1,0,2,1,0,2,0,0,2,0,0,0,0,2,2,3,0,1,1,3,1,2,0,1,1,0,1,2,2,0,1,3,3,2,1,3,"null","<div style=""font-size:75px;""><b>Correct</b></div>","null","","","","","","","","","","","","","","","","","","",""
"","html-keyboard-response",43,252922,"0.0-2.11-2.11",57,19,"f",1664222295065,750,"q","q","Only if I get the answer right","You win money","A fixed time limit",5,"female","no","after a while it becomes nonconscious and you don't even realize what you're pressing",2,0,3,1,1,3,0,2,3,1,3,3,1,1,2,1,0,0,0,1,0,0,3,2,1,2,2,1,0,2,1,0,2,0,0,2,0,0,0,0,2,2,3,0,1,1,3,1,2,0,1,1,0,1,2,2,0,1,3,3,2,1,3,"574.0999999642372","","q","","true","practice","11","up","down","0","q","1","0","1664222548330","","","","","","","",""
"","html-keyboard-response",44,253550,"0.0-2.12-0.12",57,19,"f",1664222295065,750,"q","q","Only if I get the answer right","You win money","A fixed time limit",5,"female","no","after a while it becomes nonconscious and you don't even realize what you're pressing",2,0,3,1,1,3,0,2,3,1,3,3,1,1,2,1,0,0,0,1,0,0,3,2,1,2,2,1,0,2,1,0,2,0,0,2,0,0,0,0,2,2,3,0,1,1,3,1,2,0,1,1,0,1,2,2,0,1,3,3,2,1,3,"626.6999999880791","<br><br><br><br><table><tr><td><img src=static/images/oddball_down.png></td><td><img src=static/images/oddball_up.png></td><td><img src=static/images/oddball_down.png></td></tr></table>","69","1","","","","","","","","","","","","","","","","","",""
"","html-keyboard-response",45,256053,"0.0-2.12-1.12",57,19,"f",1664222295065,750,"q","q","Only if I get the answer right","You win money","A fixed time limit",5,"female","no","after a while it becomes nonconscious and you don't even realize what you're pressing",2,0,3,1,1,3,0,2,3,1,3,3,1,1,2,1,0,0,0,1,0,0,3,2,1,2,2,1,0,2,1,0,2,0,0,2,0,0,0,0,2,2,3,0,1,1,3,1,2,0,1,1,0,1,2,2,0,1,3,3,2,1,3,"null","<div style=""font-size:75px;""><b>Incorrect</b></div><br><br><div font-size:50px;"">The middle shape was the odd one out, so you needed to press W!</div>","null","","","","","","","","","","","","","","","","","","",""
"","html-keyboard-response",46,257063,"0.0-2.12-2.12",57,19,"f",1664222295065,750,"q","q","Only if I get the answer right","You win money","A fixed time limit",5,"female","no","after a while it becomes nonconscious and you don't even realize what you're pressing",2,0,3,1,1,3,0,2,3,1,3,3,1,1,2,1,0,0,0,1,0,0,3,2,1,2,2,1,0,2,1,0,2,0,0,2,0,0,0,0,2,2,3,0,1,1,3,1,2,0,1,1,0,1,2,2,0,1,3,3,2,1,3,"626.6999999880791","","e","","true","practice","12","down","up","1","w","0","0","1664222552471","","","","","","","",""
"","html-keyboard-response",47,257573,"0.0-2.13-0.13",57,19,"f",1664222295065,750,"q","q","Only if I get the answer right","You win money","A fixed time limit",5,"female","no","after a while it becomes nonconscious and you don't even realize what you're pressing",2,0,3,1,1,3,0,2,3,1,3,3,1,1,2,1,0,0,0,1,0,0,3,2,1,2,2,1,0,2,1,0,2,0,0,2,0,0,0,0,2,2,3,0,1,1,3,1,2,0,1,1,0,1,2,2,0,1,3,3,2,1,3,"509.9000000357628","<br><br><br><br><table><tr><td><img src=static/images/oddball_up.png></td><td><img src=static/images/oddball_down.png></td><td><img src=static/images/oddball_down.png></td></tr></table>","81","1","","","","","","","","","","","","","","","","","",""
"","html-keyboard-response",48,260084,"0.0-2.13-1.13",57,19,"f",1664222295065,750,"q","q","Only if I get the answer right","You win money","A fixed time limit",5,"female","no","after a while it becomes nonconscious and you don't even realize what you're pressing",2,0,3,1,1,3,0,2,3,1,3,3,1,1,2,1,0,0,0,1,0,0,3,2,1,2,2,1,0,2,1,0,2,0,0,2,0,0,0,0,2,2,3,0,1,1,3,1,2,0,1,1,0,1,2,2,0,1,3,3,2,1,3,"null","<div style=""font-size:75px;""><b>Correct</b></div>","null","","","","","","","","","","","","","","","","","","",""
"","html-keyboard-response",49,261089,"0.0-2.13-2.13",57,19,"f",1664222295065,750,"q","q","Only if I get the answer right","You win money","A fixed time limit",5,"female","no","after a while it becomes nonconscious and you don't even realize what you're pressing",2,0,3,1,1,3,0,2,3,1,3,3,1,1,2,1,0,0,0,1,0,0,3,2,1,2,2,1,0,2,1,0,2,0,0,2,0,0,0,0,2,2,3,0,1,1,3,1,2,0,1,1,0,1,2,2,0,1,3,3,2,1,3,"509.9000000357628","","q","","true","practice","13","down","up","0","q","1","0","1664222556497","","","","","","","",""
"","html-keyboard-response",50,261590,"0.0-2.14-0.14",57,19,"f",1664222295065,750,"q","q","Only if I get the answer right","You win money","A fixed time limit",5,"female","no","after a while it becomes nonconscious and you don't even realize what you're pressing",2,0,3,1,1,3,0,2,3,1,3,3,1,1,2,1,0,0,0,1,0,0,3,2,1,2,2,1,0,2,1,0,2,0,0,2,0,0,0,0,2,2,3,0,1,1,3,1,2,0,1,1,0,1,2,2,0,1,3,3,2,1,3,"499.69999998807907","<br><br><br><br><table><tr><td><img src=static/images/oddball_down.png></td><td><img src=static/images/oddball_up.png></td><td><img src=static/images/oddball_up.png></td></tr></table>","81","1","","","","","","","","","","","","","","","","","",""
"","html-keyboard-response",51,264093,"0.0-2.14-1.14",57,19,"f",1664222295065,750,"q","q","Only if I get the answer right","You win money","A fixed time limit",5,"female","no","after a while it becomes nonconscious and you don't even realize what you're pressing",2,0,3,1,1,3,0,2,3,1,3,3,1,1,2,1,0,0,0,1,0,0,3,2,1,2,2,1,0,2,1,0,2,0,0,2,0,0,0,0,2,2,3,0,1,1,3,1,2,0,1,1,0,1,2,2,0,1,3,3,2,1,3,"null","<div style=""font-size:75px;""><b>Correct</b></div>","null","","","","","","","","","","","","","","","","","","",""
"","html-keyboard-response",52,265096,"0.0-2.14-2.14",57,19,"f",1664222295065,750,"q","q","Only if I get the answer right","You win money","A fixed time limit",5,"female","no","after a while it becomes nonconscious and you don't even realize what you're pressing",2,0,3,1,1,3,0,2,3,1,3,3,1,1,2,1,0,0,0,1,0,0,3,2,1,2,2,1,0,2,1,0,2,0,0,2,0,0,0,0,2,2,3,0,1,1,3,1,2,0,1,1,0,1,2,2,0,1,3,3,2,1,3,"499.69999998807907","","q","","true","practice","14","up","down","0","q","1","0","1664222560504","","","","","","","",""
"","html-keyboard-response",53,265830,"0.0-2.15-0.15",57,19,"f",1664222295065,750,"q","q","Only if I get the answer right","You win money","A fixed time limit",5,"female","no","after a while it becomes nonconscious and you don't even realize what you're pressing",2,0,3,1,1,3,0,2,3,1,3,3,1,1,2,1,0,0,0,1,0,0,3,2,1,2,2,1,0,2,1,0,2,0,0,2,0,0,0,0,2,2,3,0,1,1,3,1,2,0,1,1,0,1,2,2,0,1,3,3,2,1,3,"732.6000000238419","<br><br><br><br><table><tr><td><img src=static/images/oddball_up.png></td><td><img src=static/images/oddball_down.png></td><td><img src=static/images/oddball_up.png></td></tr></table>","69","1","","","","","","","","","","","","","","","","","",""
"","html-keyboard-response",54,268344,"0.0-2.15-1.15",57,19,"f",1664222295065,750,"q","q","Only if I get the answer right","You win money","A fixed time limit",5,"female","no","after a while it becomes nonconscious and you don't even realize what you're pressing",2,0,3,1,1,3,0,2,3,1,3,3,1,1,2,1,0,0,0,1,0,0,3,2,1,2,2,1,0,2,1,0,2,0,0,2,0,0,0,0,2,2,3,0,1,1,3,1,2,0,1,1,0,1,2,2,0,1,3,3,2,1,3,"null","<div style=""font-size:75px;""><b>Incorrect</b></div><br><br><div font-size:50px;"">The middle shape was the odd one out, so you needed to press W!</div>","null","","","","","","","","","","","","","","","","","","",""
"","html-keyboard-response",55,269354,"0.0-2.15-2.15",57,19,"f",1664222295065,750,"q","q","Only if I get the answer right","You win money","A fixed time limit",5,"female","no","after a while it becomes nonconscious and you don't even realize what you're pressing",2,0,3,1,1,3,0,2,3,1,3,3,1,1,2,1,0,0,0,1,0,0,3,2,1,2,2,1,0,2,1,0,2,0,0,2,0,0,0,0,2,2,3,0,1,1,3,1,2,0,1,1,0,1,2,2,0,1,3,3,2,1,3,"732.6000000238419","","e","","true","practice","15","up","down","1","w","0","0","1664222564762","","","","","","","",""
"","html-keyboard-response",56,269861,"0.0-2.16-0.16",57,19,"f",1664222295065,750,"q","q","Only if I get the answer right","You win money","A fixed time limit",5,"female","no","after a while it becomes nonconscious and you don't even realize what you're pressing",2,0,3,1,1,3,0,2,3,1,3,3,1,1,2,1,0,0,0,1,0,0,3,2,1,2,2,1,0,2,1,0,2,0,0,2,0,0,0,0,2,2,3,0,1,1,3,1,2,0,1,1,0,1,2,2,0,1,3,3,2,1,3,"506.2999999523163","<br><br><br><br><table><tr><td><img src=static/images/oddball_up.png></td><td><img src=static/images/oddball_down.png></td><td><img src=static/images/oddball_down.png></td></tr></table>","81","1","","","","","","","","","","","","","","","","","",""
"","html-keyboard-response",57,272373,"0.0-2.16-1.16",57,19,"f",1664222295065,750,"q","q","Only if I get the answer right","You win money","A fixed time limit",5,"female","no","after a while it becomes nonconscious and you don't even realize what you're pressing",2,0,3,1,1,3,0,2,3,1,3,3,1,1,2,1,0,0,0,1,0,0,3,2,1,2,2,1,0,2,1,0,2,0,0,2,0,0,0,0,2,2,3,0,1,1,3,1,2,0,1,1,0,1,2,2,0,1,3,3,2,1,3,"null","<div style=""font-size:75px;""><b>Correct</b></div>","null","","","","","","","","","","","","","","","","","","",""
"","html-keyboard-response",58,273379,"0.0-2.16-2.16",57,19,"f",1664222295065,750,"q","q","Only if I get the answer right","You win money","A fixed time limit",5,"female","no","after a while it becomes nonconscious and you don't even realize what you're pressing",2,0,3,1,1,3,0,2,3,1,3,3,1,1,2,1,0,0,0,1,0,0,3,2,1,2,2,1,0,2,1,0,2,0,0,2,0,0,0,0,2,2,3,0,1,1,3,1,2,0,1,1,0,1,2,2,0,1,3,3,2,1,3,"506.2999999523163","","q","","true","practice","16","down","up","0","q","1","0","1664222568787","","","","","","","",""
"","html-keyboard-response",59,273990,"0.0-2.17-0.17",57,19,"f",1664222295065,750,"q","q","Only if I get the answer right","You win money","A fixed time limit",5,"female","no","after a while it becomes nonconscious and you don't even realize what you're pressing",2,0,3,1,1,3,0,2,3,1,3,3,1,1,2,1,0,0,0,1,0,0,3,2,1,2,2,1,0,2,1,0,2,0,0,2,0,0,0,0,2,2,3,0,1,1,3,1,2,0,1,1,0,1,2,2,0,1,3,3,2,1,3,"610.2000000476837","<br><br><br><br><table><tr><td><img src=static/images/oddball_down.png></td><td><img src=static/images/oddball_up.png></td><td><img src=static/images/oddball_up.png></td></tr></table>","81","1","","","","","","","","","","","","","","","","","",""
"","html-keyboard-response",60,276499,"0.0-2.17-1.17",57,19,"f",1664222295065,750,"q","q","Only if I get the answer right","You win money","A fixed time limit",5,"female","no","after a while it becomes nonconscious and you don't even realize what you're pressing",2,0,3,1,1,3,0,2,3,1,3,3,1,1,2,1,0,0,0,1,0,0,3,2,1,2,2,1,0,2,1,0,2,0,0,2,0,0,0,0,2,2,3,0,1,1,3,1,2,0,1,1,0,1,2,2,0,1,3,3,2,1,3,"null","<div style=""font-size:75px;""><b>Correct</b></div>","null","","","","","","","","","","","","","","","","","","",""
"","html-keyboard-response",61,277503,"0.0-2.17-2.17",57,19,"f",1664222295065,750,"q","q","Only if I get the answer right","You win money","A fixed time limit",5,"female","no","after a while it becomes nonconscious and you don't even realize what you're pressing",2,0,3,1,1,3,0,2,3,1,3,3,1,1,2,1,0,0,0,1,0,0,3,2,1,2,2,1,0,2,1,0,2,0,0,2,0,0,0,0,2,2,3,0,1,1,3,1,2,0,1,1,0,1,2,2,0,1,3,3,2,1,3,"610.2000000476837","","q","","true","practice","17","up","down","0","q","1","0","1664222572911","","","","","","","",""
"","html-keyboard-response",62,277989,"0.0-2.18-0.18",57,19,"f",1664222295065,750,"q","q","Only if I get the answer right","You win money","A fixed time limit",5,"female","no","after a while it becomes nonconscious and you don't even realize what you're pressing",2,0,3,1,1,3,0,2,3,1,3,3,1,1,2,1,0,0,0,1,0,0,3,2,1,2,2,1,0,2,1,0,2,0,0,2,0,0,0,0,2,2,3,0,1,1,3,1,2,0,1,1,0,1,2,2,0,1,3,3,2,1,3,"485.5999999642372","<br><br><br><br><table><tr><td><img src=static/images/oddball_down.png></td><td><img src=static/images/oddball_up.png></td><td><img src=static/images/oddball_up.png></td></tr></table>","81","1","","","","","","","","","","","","","","","","","",""
"","html-keyboard-response",63,280504,"0.0-2.18-1.18",57,19,"f",1664222295065,750,"q","q","Only if I get the answer right","You win money","A fixed time limit",5,"female","no","after a while it becomes nonconscious and you don't even realize what you're pressing",2,0,3,1,1,3,0,2,3,1,3,3,1,1,2,1,0,0,0,1,0,0,3,2,1,2,2,1,0,2,1,0,2,0,0,2,0,0,0,0,2,2,3,0,1,1,3,1,2,0,1,1,0,1,2,2,0,1,3,3,2,1,3,"null","<div style=""font-size:75px;""><b>Correct</b></div>","null","","","","","","","","","","","","","","","","","","",""
"","html-keyboard-response",64,281509,"0.0-2.18-2.18",57,19,"f",1664222295065,750,"q","q","Only if I get the answer right","You win money","A fixed time limit",5,"female","no","after a while it becomes nonconscious and you don't even realize what you're pressing",2,0,3,1,1,3,0,2,3,1,3,3,1,1,2,1,0,0,0,1,0,0,3,2,1,2,2,1,0,2,1,0,2,0,0,2,0,0,0,0,2,2,3,0,1,1,3,1,2,0,1,1,0,1,2,2,0,1,3,3,2,1,3,"485.5999999642372","","q","","true","practice","18","up","down","0","q","1","0","1664222576917","","","","","","","",""
"","html-keyboard-response",65,282021,"0.0-2.19-0.19",57,19,"f",1664222295065,750,"q","q","Only if I get the answer right","You win money","A fixed time limit",5,"female","no","after a while it becomes nonconscious and you don't even realize what you're pressing",2,0,3,1,1,3,0,2,3,1,3,3,1,1,2,1,0,0,0,1,0,0,3,2,1,2,2,1,0,2,1,0,2,0,0,2,0,0,0,0,2,2,3,0,1,1,3,1,2,0,1,1,0,1,2,2,0,1,3,3,2,1,3,"511.89999997615814","<br><br><br><br><table><tr><td><img src=static/images/oddball_up.png></td><td><img src=static/images/oddball_up.png></td><td><img src=static/images/oddball_down.png></td></tr></table>","69","1","","","","","","","","","","","","","","","","","",""
"","html-keyboard-response",66,284524,"0.0-2.19-1.19",57,19,"f",1664222295065,750,"q","q","Only if I get the answer right","You win money","A fixed time limit",5,"female","no","after a while it becomes nonconscious and you don't even realize what you're pressing",2,0,3,1,1,3,0,2,3,1,3,3,1,1,2,1,0,0,0,1,0,0,3,2,1,2,2,1,0,2,1,0,2,0,0,2,0,0,0,0,2,2,3,0,1,1,3,1,2,0,1,1,0,1,2,2,0,1,3,3,2,1,3,"null","<div style=""font-size:75px;""><b>Correct</b></div>","null","","","","","","","","","","","","","","","","","","",""
"","html-keyboard-response",67,285533,"0.0-2.19-2.19",57,19,"f",1664222295065,750,"q","q","Only if I get the answer right","You win money","A fixed time limit",5,"female","no","after a while it becomes nonconscious and you don't even realize what you're pressing",2,0,3,1,1,3,0,2,3,1,3,3,1,1,2,1,0,0,0,1,0,0,3,2,1,2,2,1,0,2,1,0,2,0,0,2,0,0,0,0,2,2,3,0,1,1,3,1,2,0,1,1,0,1,2,2,0,1,3,3,2,1,3,"511.89999997615814","","e","","true","practice","19","up","down","2","e","1","0","1664222580941","","","","","","","",""
"","image-keyboard-response",68,289821,"0.0-3.0-0.0",57,19,"f",1664222295065,750,"q","q","Only if I get the answer right","You win money","A fixed time limit",5,"female","no","after a while it becomes nonconscious and you don't even realize what you're pressing",2,0,3,1,1,3,0,2,3,1,3,3,1,1,2,1,0,0,0,1,0,0,3,2,1,2,2,1,0,2,1,0,2,0,0,2,0,0,0,0,2,2,3,0,1,1,3,1,2,0,1,1,0,1,2,2,0,1,3,3,2,1,3,"4287.399999976158","static/images/instructions/Slide8.png","39","","","","","","","","","","","","","","","","","","",""
"","image-keyboard-response",69,306213,"0.0-3.1-0.1",57,19,"f",1664222295065,750,"q","q","Only if I get the answer right","You win money","A fixed time limit",5,"female","no","after a while it becomes nonconscious and you don't even realize what you're pressing",2,0,3,1,1,3,0,2,3,1,3,3,1,1,2,1,0,0,0,1,0,0,3,2,1,2,2,1,0,2,1,0,2,0,0,2,0,0,0,0,2,2,3,0,1,1,3,1,2,0,1,1,0,1,2,2,0,1,3,3,2,1,3,"16391.400000035763","static/images/instructions/Slide9.png","39","","","","","","","","","","","","","","","","","","",""
"","image-keyboard-response",70,313157,"0.0-3.2-0.2",57,19,"f",1664222295065,750,"q","q","Only if I get the answer right","You win money","A fixed time limit",5,"female","no","after a while it becomes nonconscious and you don't even realize what you're pressing",2,0,3,1,1,3,0,2,3,1,3,3,1,1,2,1,0,0,0,1,0,0,3,2,1,2,2,1,0,2,1,0,2,0,0,2,0,0,0,0,2,2,3,0,1,1,3,1,2,0,1,1,0,1,2,2,0,1,3,3,2,1,3,"6943.199999988079","static/images/instructions/Slide10.png","39","","","","","","","","","","","","","","","","","","",""
"","image-keyboard-response",71,320445,"0.0-3.3-0.3",57,19,"f",1664222295065,750,"q","q","Only if I get the answer right","You win money","A fixed time limit",5,"female","no","after a while it becomes nonconscious and you don't even realize what you're pressing",2,0,3,1,1,3,0,2,3,1,3,3,1,1,2,1,0,0,0,1,0,0,3,2,1,2,2,1,0,2,1,0,2,0,0,2,0,0,0,0,2,2,3,0,1,1,3,1,2,0,1,1,0,1,2,2,0,1,3,3,2,1,3,"7287.400000035763","static/images/instructions/Slide11.png","39","","","","","","","","","","","","","","","","","","",""
"","image-keyboard-response",72,323389,"0.0-3.4-0.4",57,19,"f",1664222295065,750,"q","q","Only if I get the answer right","You win money","A fixed time limit",5,"female","no","after a while it becomes nonconscious and you don't even realize what you're pressing",2,0,3,1,1,3,0,2,3,1,3,3,1,1,2,1,0,0,0,1,0,0,3,2,1,2,2,1,0,2,1,0,2,0,0,2,0,0,0,0,2,2,3,0,1,1,3,1,2,0,1,1,0,1,2,2,0,1,3,3,2,1,3,"2943.400000035763","static/images/instructions/Slide12.png","39","","","","","","","","","","","","","","","","","","",""
"","image-keyboard-response",73,330509,"0.0-3.5-0.5",57,19,"f",1664222295065,750,"q","q","Only if I get the answer right","You win money","A fixed time limit",5,"female","no","after a while it becomes nonconscious and you don't even realize what you're pressing",2,0,3,1,1,3,0,2,3,1,3,3,1,1,2,1,0,0,0,1,0,0,3,2,1,2,2,1,0,2,1,0,2,0,0,2,0,0,0,0,2,2,3,0,1,1,3,1,2,0,1,1,0,1,2,2,0,1,3,3,2,1,3,"7119.399999976158","static/images/instructions/Slide13.png","39","","","","","","","","","","","","","","","","","","",""
"","image-keyboard-response",74,339505,"0.0-3.6-0.6",57,19,"f",1664222295065,750,"q","q","Only if I get the answer right","You win money","A fixed time limit",5,"female","no","after a while it becomes nonconscious and you don't even realize what you're pressing",2,0,3,1,1,3,0,2,3,1,3,3,1,1,2,1,0,0,0,1,0,0,3,2,1,2,2,1,0,2,1,0,2,0,0,2,0,0,0,0,2,2,3,0,1,1,3,1,2,0,1,1,0,1,2,2,0,1,3,3,2,1,3,"9007.600000023842","static/images/instructions/Slide14.png","39","","","","","","","","","","","","","","","","","","",""
"","image-keyboard-response",75,343952,"0.0-3.7-0.7",57,19,"f",1664222295065,750,"q","q","Only if I get the answer right","You win money","A fixed time limit",5,"female","no","after a while it becomes nonconscious and you don't even realize what you're pressing",2,0,3,1,1,3,0,2,3,1,3,3,1,1,2,1,0,0,0,1,0,0,3,2,1,2,2,1,0,2,1,0,2,0,0,2,0,0,0,0,2,2,3,0,1,1,3,1,2,0,1,1,0,1,2,2,0,1,3,3,2,1,3,"4447.099999964237","static/images/instructions/Slide15.png","39","","","","","","","","","","","","","","","","","","",""
"","image-keyboard-response",76,352360,"0.0-3.8-0.8",57,19,"f",1664222295065,750,"q","q","Only if I get the answer right","You win money","A fixed time limit",5,"female","no","after a while it becomes nonconscious and you don't even realize what you're pressing",2,0,3,1,1,3,0,2,3,1,3,3,1,1,2,1,0,0,0,1,0,0,3,2,1,2,2,1,0,2,1,0,2,0,0,2,0,0,0,0,2,2,3,0,1,1,3,1,2,0,1,1,0,1,2,2,0,1,3,3,2,1,3,"8407.399999976158","static/images/instructions/Slide16.png","39","","","","","","","","","","","","","","","","","","",""
"","image-keyboard-response",77,356049,"0.0-3.9-0.9",57,19,"f",1664222295065,750,"q","q","Only if I get the answer right","You win money","A fixed time limit",5,"female","no","after a while it becomes nonconscious and you don't even realize what you're pressing",2,0,3,1,1,3,0,2,3,1,3,3,1,1,2,1,0,0,0,1,0,0,3,2,1,2,2,1,0,2,1,0,2,0,0,2,0,0,0,0,2,2,3,0,1,1,3,1,2,0,1,1,0,1,2,2,0,1,3,3,2,1,3,"3687.600000023842","static/images/instructions/Slide17.png","39","","","","","","","","","","","","","","","","","","",""
"","survey-multi-choice",78,385153,"0.0-4.0",57,19,"f",1664222295065,750,"q","q","Only if I get the answer right","You win money","A fixed time limit",5,"female","no","after a while it becomes nonconscious and you don't even realize what you're pressing",2,0,3,1,1,3,0,2,3,1,3,3,1,1,2,1,0,0,0,1,0,0,3,2,1,2,2,1,0,2,1,0,2,0,0,2,0,0,0,0,2,2,3,0,1,1,3,1,2,0,1,1,0,1,2,2,0,1,3,3,2,1,3,"29103","","","","","","","","","","","","","","{""q1"":""q"",""q2"":""q"",""q3"":""Only if I get the answer right"",""q4"":""You win money"",""q5"":""A fixed time limit""}","[0,4,2,1,3]","","","","","",""
"","image-keyboard-response",79,391808,"0.0-5.0-0.0",57,19,"f",1664222295065,750,"q","q","Only if I get the answer right","You win money","A fixed time limit",5,"female","no","after a while it becomes nonconscious and you don't even realize what you're pressing",2,0,3,1,1,3,0,2,3,1,3,3,1,1,2,1,0,0,0,1,0,0,3,2,1,2,2,1,0,2,1,0,2,0,0,2,0,0,0,0,2,2,3,0,1,1,3,1,2,0,1,1,0,1,2,2,0,1,3,3,2,1,3,"6654","static/images/instructions/Slide18.png","39","","","","","","","","","","","","","","","","","","",""
"","html-keyboard-response",80,392822,"0.0-6.0-0.0-0.0",57,19,"f",1664222295065,750,"q","q","Only if I get the answer right","You win money","A fixed time limit",5,"female","no","after a while it becomes nonconscious and you don't even realize what you're pressing",2,0,3,1,1,3,0,2,3,1,3,3,1,1,2,1,0,0,0,1,0,0,3,2,1,2,2,1,0,2,1,0,2,0,0,2,0,0,0,0,2,2,3,0,1,1,3,1,2,0,1,1,0,1,2,2,0,1,3,3,2,1,3,"null","<div style=""font-size:75px;"">3</div>","null","","","","","","","","","","","","","","","","","","",""
"","html-keyboard-response",81,393825,"0.0-6.0-0.1-0.1",57,19,"f",1664222295065,750,"q","q","Only if I get the answer right","You win money","A fixed time limit",5,"female","no","after a while it becomes nonconscious and you don't even realize what you're pressing",2,0,3,1,1,3,0,2,3,1,3,3,1,1,2,1,0,0,0,1,0,0,3,2,1,2,2,1,0,2,1,0,2,0,0,2,0,0,0,0,2,2,3,0,1,1,3,1,2,0,1,1,0,1,2,2,0,1,3,3,2,1,3,"null","<div style=""font-size:75px;"">2</div>","null","","","","","","","","","","","","","","","","","","",""
"","html-keyboard-response",82,394827,"0.0-6.0-0.2-0.2",57,19,"f",1664222295065,750,"q","q","Only if I get the answer right","You win money","A fixed time limit",5,"female","no","after a while it becomes nonconscious and you don't even realize what you're pressing",2,0,3,1,1,3,0,2,3,1,3,3,1,1,2,1,0,0,0,1,0,0,3,2,1,2,2,1,0,2,1,0,2,0,0,2,0,0,0,0,2,2,3,0,1,1,3,1,2,0,1,1,0,1,2,2,0,1,3,3,2,1,3,"null","<div style=""font-size:75px;"">1</div>","null","","","","","","","","","","","","","","","","","","",""
"","html-keyboard-response",83,395304,"0.0-6.0-1.0-0.0",57,19,"f",1664222295065,750,"q","q","Only if I get the answer right","You win money","A fixed time limit",5,"female","no","after a while it becomes nonconscious and you don't even realize what you're pressing",2,0,3,1,1,3,0,2,3,1,3,3,1,1,2,1,0,0,0,1,0,0,3,2,1,2,2,1,0,2,1,0,2,0,0,2,0,0,0,0,2,2,3,0,1,1,3,1,2,0,1,1,0,1,2,2,0,1,3,3,2,1,3,"476.69999998807907","<div style=""color:green; font-size:75px;""><b>$0.02</b></div><br><br><br><br><table><tr><td><img src=static/images/oddball_up.png></td><td><img src=static/images/oddball_up.png></td><td><img src=static/images/oddball_down.png></td></tr></table>","69","1","","","","","","","","","","","","","","","","","",""
"","html-keyboard-response",84,395362.989610821,"0.0-6.0-1.0-1.0",57,19,"f",1664222295065,750,"q","q","Only if I get the answer right","You win money","A fixed time limit",5,"female","no","after a while it becomes nonconscious and you don't even realize what you're pressing",2,0,3,1,1,3,0,2,3,1,3,3,1,1,2,1,0,0,0,1,0,0,3,2,1,2,2,1,0,2,1,0,2,0,0,2,0,0,0,0,2,2,3,0,1,1,3,1,2,0,1,1,0,1,2,2,0,1,3,3,2,1,3,"433.689610809237","","e","","true","0","0","up","down","2","e","1","0","1664222690770.99","","","false","60","0","0","0.02","null"
"","html-keyboard-response",85,395920,"0.0-6.0-1.1-0.1",57,19,"f",1664222295065,750,"q","q","Only if I get the answer right","You win money","A fixed time limit",5,"female","no","after a while it becomes nonconscious and you don't even realize what you're pressing",2,0,3,1,1,3,0,2,3,1,3,3,1,1,2,1,0,0,0,1,0,0,3,2,1,2,2,1,0,2,1,0,2,0,0,2,0,0,0,0,2,2,3,0,1,1,3,1,2,0,1,1,0,1,2,2,0,1,3,3,2,1,3,"513.6999999880791","<div style=""color:green; font-size:75px;""><b>$0.02</b></div><br><br><br><br><table><tr><td><img src=static/images/oddball_up.png></td><td><img src=static/images/oddball_up.png></td><td><img src=static/images/oddball_down.png></td></tr></table>","69","1","","","","","","","","","","","","","","","","","",""
"","html-keyboard-response",86,395922.484925906,"0.0-6.0-1.1-1.1",57,19,"f",1664222295065,750,"q","q","Only if I get the answer right","You win money","A fixed time limit",5,"female","no","after a while it becomes nonconscious and you don't even realize what you're pressing",2,0,3,1,1,3,0,2,3,1,3,3,1,1,2,1,0,0,0,1,0,0,3,2,1,2,2,1,0,2,1,0,2,0,0,2,0,0,0,0,2,2,3,0,1,1,3,1,2,0,1,1,0,1,2,2,0,1,3,3,2,1,3,"412.184925894425","","e","","true","0","1","up","down","2","e","1","0","1664222691330.48","","","false","60","1","0.0166666666666667","0.02","false"
"","html-keyboard-response",87,396680,"0.0-6.0-1.2-0.2",57,19,"f",1664222295065,750,"q","q","Only if I get the answer right","You win money","A fixed time limit",5,"female","no","after a while it becomes nonconscious and you don't even realize what you're pressing",2,0,3,1,1,3,0,2,3,1,3,3,1,1,2,1,0,0,0,1,0,0,3,2,1,2,2,1,0,2,1,0,2,0,0,2,0,0,0,0,2,2,3,0,1,1,3,1,2,0,1,1,0,1,2,2,0,1,3,3,2,1,3,"656","<div style=""color:green; font-size:75px;""><b>$0.02</b></div><br><br><br><br><table><tr><td><img src=static/images/oddball_down.png></td><td><img src=static/images/oddball_up.png></td><td><img src=static/images/oddball_down.png></td></tr></table>","87","1","","","","","","","","","","","","","","","","","",""
"","html-keyboard-response",88,396745.387346688,"0.0-6.0-1.2-1.2",57,19,"f",1664222295065,750,"q","q","Only if I get the answer right","You win money","A fixed time limit",5,"female","no","after a while it becomes nonconscious and you don't even realize what you're pressing",2,0,3,1,1,3,0,2,3,1,3,3,1,1,2,1,0,0,0,1,0,0,3,2,1,2,2,1,0,2,1,0,2,0,0,2,0,0,0,0,2,2,3,0,1,1,3,1,2,0,1,1,0,1,2,2,0,1,3,3,2,1,3,"609.387","","w","","true","0","2","down","up","1","w","1","0","1664222692153.39","","","false","60","2","0.0333333333333333","0.02","false"
"","html-keyboard-response",89,397313,"0.0-6.0-1.3-0.3",57,19,"f",1664222295065,750,"q","q","Only if I get the answer right","You win money","A fixed time limit",5,"female","no","after a while it becomes nonconscious and you don't even realize what you're pressing",2,0,3,1,1,3,0,2,3,1,3,3,1,1,2,1,0,0,0,1,0,0,3,2,1,2,2,1,0,2,1,0,2,0,0,2,0,0,0,0,2,2,3,0,1,1,3,1,2,0,1,1,0,1,2,2,0,1,3,3,2,1,3,"520","<div style=""color:green; font-size:75px;""><b>$0.02</b></div><br><br><br><br><table><tr><td><img src=static/images/oddball_down.png></td><td><img src=static/images/oddball_up.png></td><td><img src=static/images/oddball_down.png></td></tr></table>","87","1","","","","","","","","","","","","","","","","","",""
"","html-keyboard-response",90,397490.248739166,"0.0-6.0-1.3-1.3",57,19,"f",1664222295065,750,"q","q","Only if I get the answer right","You win money","A fixed time limit",5,"female","no","after a while it becomes nonconscious and you don't even realize what you're pressing",2,0,3,1,1,3,0,2,3,1,3,3,1,1,2,1,0,0,0,1,0,0,3,2,1,2,2,1,0,2,1,0,2,0,0,2,0,0,0,0,2,2,3,0,1,1,3,1,2,0,1,1,0,1,2,2,0,1,3,3,2,1,3,"584.249","","w","","true","0","3","down","up","1","w","1","0","1664222692898.25","","","false","60","3","0.05","0.02","false"
"","html-keyboard-response",91,398041,"0.0-6.0-1.4-0.4",57,19,"f",1664222295065,750,"q","q","Only if I get the answer right","You win money","A fixed time limit",5,"female","no","after a while it becomes nonconscious and you don't even realize what you're pressing",2,0,3,1,1,3,0,2,3,1,3,3,1,1,2,1,0,0,0,1,0,0,3,2,1,2,2,1,0,2,1,0,2,0,0,2,0,0,0,0,2,2,3,0,1,1,3,1,2,0,1,1,0,1,2,2,0,1,3,3,2,1,3,"613.5","<div style=""color:green; font-size:75px;""><b>$0.02</b></div><br><br><br><br><table><tr><td><img src=static/images/oddball_up.png></td><td><img src=static/images/oddball_down.png></td><td><img src=static/images/oddball_down.png></td></tr></table>","81","1","","","","","","","","","","","","","","","","","",""
"","html-keyboard-response",92,398134.821340473,"0.0-6.0-1.4-1.4",57,19,"f",1664222295065,750,"q","q","Only if I get the answer right","You win money","A fixed time limit",5,"female","no","after a while it becomes nonconscious and you don't even realize what you're pressing",2,0,3,1,1,3,0,2,3,1,3,3,1,1,2,1,0,0,0,1,0,0,3,2,1,2,2,1,0,2,1,0,2,0,0,2,0,0,0,0,2,2,3,0,1,1,3,1,2,0,1,1,0,1,2,2,0,1,3,3,2,1,3,"604.32134","","q","","true","0","4","down","up","0","q","1","0","1664222693543.82","","","false","60","4","0.0666666666666667","0.02","false"
"","html-keyboard-response",93,398816,"0.0-6.0-1.5-0.5",57,19,"f",1664222295065,750,"q","q","Only if I get the answer right","You win money","A fixed time limit",5,"female","no","after a while it becomes nonconscious and you don't even realize what you're pressing",2,0,3,1,1,3,0,2,3,1,3,3,1,1,2,1,0,0,0,1,0,0,3,2,1,2,2,1,0,2,1,0,2,0,0,2,0,0,0,0,2,2,3,0,1,1,3,1,2,0,1,1,0,1,2,2,0,1,3,3,2,1,3,"671.1999999880791","<div style=""color:green; font-size:75px;""><b>$0.02</b></div><br><br><br><br><table><tr><td><img src=static/images/oddball_up.png></td><td><img src=static/images/oddball_up.png></td><td><img src=static/images/oddball_down.png></td></tr></table>","69","1","","","","","","","","","","","","","","","","","",""
"","html-keyboard-response",94,399001.097641803,"0.0-6.0-1.5-1.5",57,19,"f",1664222295065,750,"q","q","Only if I get the answer right","You win money","A fixed time limit",5,"female","no","after a while it becomes nonconscious and you don't even realize what you're pressing",2,0,3,1,1,3,0,2,3,1,3,3,1,1,2,1,0,0,0,1,0,0,3,2,1,2,2,1,0,2,1,0,2,0,0,2,0,0,0,0,2,2,3,0,1,1,3,1,2,0,1,1,0,1,2,2,0,1,3,3,2,1,3,"743.297641791573","","e","","true","0","5","up","down","2","e","1","0","1664222694409.1","","","false","60","5","0.0833333333333333","0.02","false"
"","html-keyboard-response",95,399557,"0.0-6.0-1.6-0.6",57,19,"f",1664222295065,750,"q","q","Only if I get the answer right","You win money","A fixed time limit",5,"female","no","after a while it becomes nonconscious and you don't even realize what you're pressing",2,0,3,1,1,3,0,2,3,1,3,3,1,1,2,1,0,0,0,1,0,0,3,2,1,2,2,1,0,2,1,0,2,0,0,2,0,0,0,0,2,2,3,0,1,1,3,1,2,0,1,1,0,1,2,2,0,1,3,3,2,1,3,"622.8000000119209","<div style=""color:green; font-size:75px;""><b>$0.02</b></div><br><br><br><br><table><tr><td><img src=static/images/oddball_down.png></td><td><img src=static/images/oddball_up.png></td><td><img src=static/images/oddball_down.png></td></tr></table>","87","1","","","","","","","","","","","","","","","","","",""
"","html-keyboard-response",96,399690.780670348,"0.0-6.0-1.6-1.6",57,19,"f",1664222295065,750,"q","q","Only if I get the answer right","You win money","A fixed time limit",5,"female","no","after a while it becomes nonconscious and you don't even realize what you're pressing",2,0,3,1,1,3,0,2,3,1,3,3,1,1,2,1,0,0,0,1,0,0,3,2,1,2,2,1,0,2,1,0,2,0,0,2,0,0,0,0,2,2,3,0,1,1,3,1,2,0,1,1,0,1,2,2,0,1,3,3,2,1,3,"644.580670360284","","w","","true","0","6","down","up","1","w","1","0","1664222695098.78","","","false","60","6","0.1","0.02","false"
"","html-keyboard-response",97,400325,"0.0-6.0-1.7-0.7",57,19,"f",1664222295065,750,"q","q","Only if I get the answer right","You win money","A fixed time limit",5,"female","no","after a while it becomes nonconscious and you don't even realize what you're pressing",2,0,3,1,1,3,0,2,3,1,3,3,1,1,2,1,0,0,0,1,0,0,3,2,1,2,2,1,0,2,1,0,2,0,0,2,0,0,0,0,2,2,3,0,1,1,3,1,2,0,1,1,0,1,2,2,0,1,3,3,2,1,3,"655.5999999642372","<div style=""color:green; font-size:75px;""><b>$0.02</b></div><br><br><br><br><table><tr><td><img src=static/images/oddball_down.png></td><td><img src=static/images/oddball_down.png></td><td><img src=static/images/oddball_up.png></td></tr></table>","69","1","","","","","","","","","","","","","","","","","",""
"","html-keyboard-response",98,400473.283080505,"0.0-6.0-1.7-1.7",57,19,"f",1664222295065,750,"q","q","Only if I get the answer right","You win money","A fixed time limit",5,"female","no","after a while it becomes nonconscious and you don't even realize what you're pressing",2,0,3,1,1,3,0,2,3,1,3,3,1,1,2,1,0,0,0,1,0,0,3,2,1,2,2,1,0,2,1,0,2,0,0,2,0,0,0,0,2,2,3,0,1,1,3,1,2,0,1,1,0,1,2,2,0,1,3,3,2,1,3,"691.883080468979","","e","","true","0","7","down","up","2","e","1","0","1664222695881.28","","","false","60","7","0.116666666666667","0.02","false"
"","html-keyboard-response",99,401045,"0.0-6.0-1.8-0.8",57,19,"f",1664222295065,750,"q","q","Only if I get the answer right","You win money","A fixed time limit",5,"female","no","after a while it becomes nonconscious and you don't even realize what you're pressing",2,0,3,1,1,3,0,2,3,1,3,3,1,1,2,1,0,0,0,1,0,0,3,2,1,2,2,1,0,2,1,0,2,0,0,2,0,0,0,0,2,2,3,0,1,1,3,1,2,0,1,1,0,1,2,2,0,1,3,3,2,1,3,"607.3999999761581","<div style=""color:green; font-size:75px;""><b>$0.02</b></div><br><br><br><br><table><tr><td><img src=static/images/oddball_down.png></td><td><img src=static/images/oddball_up.png></td><td><img src=static/images/oddball_up.png></td></tr></table>","81","1","","","","","","","","","","","","","","","","","",""
"","html-keyboard-response",100,401245.638819044,"0.0-6.0-1.8-1.8",57,19,"f",1664222295065,750,"q","q","Only if I get the answer right","You win money","A fixed time limit",5,"female","no","after a while it becomes nonconscious and you don't even realize what you're pressing",2,0,3,1,1,3,0,2,3,1,3,3,1,1,2,1,0,0,0,1,0,0,3,2,1,2,2,1,0,2,1,0,2,0,0,2,0,0,0,0,2,2,3,0,1,1,3,1,2,0,1,1,0,1,2,2,0,1,3,3,2,1,3,"698.038819020279","","q","","true","0","8","up","down","0","q","1","0","1664222696653.64","","","false","60","8","0.133333333333333","0.02","false"
"","html-keyboard-response",101,401885,"0.0-6.0-1.9-0.9",57,19,"f",1664222295065,750,"q","q","Only if I get the answer right","You win money","A fixed time limit",5,"female","no","after a while it becomes nonconscious and you don't even realize what you're pressing",2,0,3,1,1,3,0,2,3,1,3,3,1,1,2,1,0,0,0,1,0,0,3,2,1,2,2,1,0,2,1,0,2,0,0,2,0,0,0,0,2,2,3,0,1,1,3,1,2,0,1,1,0,1,2,2,0,1,3,3,2,1,3,"729.8999999761581","<div style=""color:green; font-size:75px;""><b>$0.02</b></div><br><br><br><br><table><tr><td><img src=static/images/oddball_up.png></td><td><img src=static/images/oddball_down.png></td><td><img src=static/images/oddball_up.png></td></tr></table>","87","1","","","","","","","","","","","","","","","","","",""
"","html-keyboard-response",102,402002.153921799,"0.0-6.0-1.9-1.9",57,19,"f",1664222295065,750,"q","q","Only if I get the answer right","You win money","A fixed time limit",5,"female","no","after a while it becomes nonconscious and you don't even realize what you're pressing",2,0,3,1,1,3,0,2,3,1,3,3,1,1,2,1,0,0,0,1,0,0,3,2,1,2,2,1,0,2,1,0,2,0,0,2,0,0,0,0,2,2,3,0,1,1,3,1,2,0,1,1,0,1,2,2,0,1,3,3,2,1,3,"742.053921775427","","w","","true","0","9","up","down","1","w","1","0","1664222697410.15","","","false","60","9","0.15","0.02","false"
"","html-keyboard-response",103,402701,"0.0-6.0-1.10-0.10",57,19,"f",1664222295065,750,"q","q","Only if I get the answer right","You win money","A fixed time limit",5,"female","no","after a while it becomes nonconscious and you don't even realize what you're pressing",2,0,3,1,1,3,0,2,3,1,3,3,1,1,2,1,0,0,0,1,0,0,3,2,1,2,2,1,0,2,1,0,2,0,0,2,0,0,0,0,2,2,3,0,1,1,3,1,2,0,1,1,0,1,2,2,0,1,3,3,2,1,3,"711","<div style=""color:green; font-size:75px;""><b>$0.02</b></div><br><br><br><br><table><tr><td><img src=static/images/oddball_down.png></td><td><img src=static/images/oddball_down.png></td><td><img src=static/images/oddball_up.png></td></tr></table>","69","1","","","","","","","","","","","","","","","","","",""
"","html-keyboard-response",104,402791.49377672,"0.0-6.0-1.10-1.10",57,19,"f",1664222295065,750,"q","q","Only if I get the answer right","You win money","A fixed time limit",5,"female","no","after a while it becomes nonconscious and you don't even realize what you're pressing",2,0,3,1,1,3,0,2,3,1,3,3,1,1,2,1,0,0,0,1,0,0,3,2,1,2,2,1,0,2,1,0,2,0,0,2,0,0,0,0,2,2,3,0,1,1,3,1,2,0,1,1,0,1,2,2,0,1,3,3,2,1,3,"694.494","","e","","true","0","10","down","up","2","e","1","0","1664222698199.49","","","false","60","10","0.166666666666667","0.02","false"
"","html-keyboard-response",105,403493,"0.0-6.0-1.11-0.11",57,19,"f",1664222295065,750,"q","q","Only if I get the answer right","You win money","A fixed time limit",5,"female","no","after a while it becomes nonconscious and you don't even realize what you're pressing",2,0,3,1,1,3,0,2,3,1,3,3,1,1,2,1,0,0,0,1,0,0,3,2,1,2,2,1,0,2,1,0,2,0,0,2,0,0,0,0,2,2,3,0,1,1,3,1,2,0,1,1,0,1,2,2,0,1,3,3,2,1,3,"684.5999999642372","<div style=""color:green; font-size:75px;""><b>$0.02</b></div><br><br><br><br><table><tr><td><img src=static/images/oddball_down.png></td><td><img src=static/images/oddball_up.png></td><td><img src=static/images/oddball_up.png></td></tr></table>","81","1","","","","","","","","","","","","","","","","","",""
"","html-keyboard-response",106,403583.448315493,"0.0-6.0-1.11-1.11",57,19,"f",1664222295065,750,"q","q","Only if I get the answer right","You win money","A fixed time limit",5,"female","no","after a while it becomes nonconscious and you don't even realize what you're pressing",2,0,3,1,1,3,0,2,3,1,3,3,1,1,2,1,0,0,0,1,0,0,3,2,1,2,2,1,0,2,1,0,2,0,0,2,0,0,0,0,2,2,3,0,1,1,3,1,2,0,1,1,0,1,2,2,0,1,3,3,2,1,3,"659.048315457427","","q","","true","0","11","up","down","0","q","1","0","1664222698991.45","","","false","60","11","0.183333333333333","0.02","false"
"","html-keyboard-response",107,404261,"0.0-6.0-1.12-0.12",57,19,"f",1664222295065,750,"q","q","Only if I get the answer right","You win money","A fixed time limit",5,"female","no","after a while it becomes nonconscious and you don't even realize what you're pressing",2,0,3,1,1,3,0,2,3,1,3,3,1,1,2,1,0,0,0,1,0,0,3,2,1,2,2,1,0,2,1,0,2,0,0,2,0,0,0,0,2,2,3,0,1,1,3,1,2,0,1,1,0,1,2,2,0,1,3,3,2,1,3,"651.5","<div style=""color:green; font-size:75px;""><b>$0.02</b></div><br><br><br><br><table><tr><td><img src=static/images/oddball_down.png></td><td><img src=static/images/oddball_up.png></td><td><img src=static/images/oddball_down.png></td></tr></table>","87","1","","","","","","","","","","","","","","","","","",""
"","html-keyboard-response",108,404434.004974299,"0.0-6.0-1.12-1.12",57,19,"f",1664222295065,750,"q","q","Only if I get the answer right","You win money","A fixed time limit",5,"female","no","after a while it becomes nonconscious and you don't even realize what you're pressing",2,0,3,1,1,3,0,2,3,1,3,3,1,1,2,1,0,0,0,1,0,0,3,2,1,2,2,1,0,2,1,0,2,0,0,2,0,0,0,0,2,2,3,0,1,1,3,1,2,0,1,1,0,1,2,2,0,1,3,3,2,1,3,"723.50497","","w","","true","0","12","down","up","1","w","1","0","1664222699842","","","false","60","12","0.2","0.02","false"
"","html-keyboard-response",109,404909,"0.0-6.0-1.13-0.13",57,19,"f",1664222295065,750,"q","q","Only if I get the answer right","You win money","A fixed time limit",5,"female","no","after a while it becomes nonconscious and you don't even realize what you're pressing",2,0,3,1,1,3,0,2,3,1,3,3,1,1,2,1,0,0,0,1,0,0,3,2,1,2,2,1,0,2,1,0,2,0,0,2,0,0,0,0,2,2,3,0,1,1,3,1,2,0,1,1,0,1,2,2,0,1,3,3,2,1,3,"547.1000000238419","<div style=""color:green; font-size:75px;""><b>$0.02</b></div><br><br><br><br><table><tr><td><img src=static/images/oddball_down.png></td><td><img src=static/images/oddball_up.png></td><td><img src=static/images/oddball_down.png></td></tr></table>","87","1","","","","","","","","","","","","","","","","","",""
"","html-keyboard-response",110,405010.584602625,"0.0-6.0-1.13-1.13",57,19,"f",1664222295065,750,"q","q","Only if I get the answer right","You win money","A fixed time limit",5,"female","no","after a while it becomes nonconscious and you don't even realize what you're pressing",2,0,3,1,1,3,0,2,3,1,3,3,1,1,2,1,0,0,0,1,0,0,3,2,1,2,2,1,0,2,1,0,2,0,0,2,0,0,0,0,2,2,3,0,1,1,3,1,2,0,1,1,0,1,2,2,0,1,3,3,2,1,3,"545.684602648343","","w","","true","0","13","down","up","1","w","1","0","1664222700418.58","","","false","60","13","0.216666666666667","0.02","false"
"","html-keyboard-response",111,405550,"0.0-6.0-1.14-0.14",57,19,"f",1664222295065,750,"q","q","Only if I get the answer right","You win money","A fixed time limit",5,"female","no","after a while it becomes nonconscious and you don't even realize what you're pressing",2,0,3,1,1,3,0,2,3,1,3,3,1,1,2,1,0,0,0,1,0,0,3,2,1,2,2,1,0,2,1,0,2,0,0,2,0,0,0,0,2,2,3,0,1,1,3,1,2,0,1,1,0,1,2,2,0,1,3,3,2,1,3,"536.6000000238419","<div style=""color:green; font-size:75px;""><b>$0.02</b></div><br><br><br><br><table><tr><td><img src=static/images/oddball_up.png></td><td><img src=static/images/oddball_down.png></td><td><img src=static/images/oddball_down.png></td></tr></table>","81","1","","","","","","","","","","","","","","","","","",""
"","html-keyboard-response",112,405581.999118692,"0.0-6.0-1.14-1.14",57,19,"f",1664222295065,750,"q","q","Only if I get the answer right","You win money","A fixed time limit",5,"female","no","after a while it becomes nonconscious and you don't even realize what you're pressing",2,0,3,1,1,3,0,2,3,1,3,3,1,1,2,1,0,0,0,1,0,0,3,2,1,2,2,1,0,2,1,0,2,0,0,2,0,0,0,0,2,2,3,0,1,1,3,1,2,0,1,1,0,1,2,2,0,1,3,3,2,1,3,"454.599118715836","","q","","true","0","14","down","up","0","q","1","0","1664222700991","","","false","60","14","0.233333333333333","0.02","false"
"","html-keyboard-response",113,406293,"0.0-6.0-1.15-0.15",57,19,"f",1664222295065,750,"q","q","Only if I get the answer right","You win money","A fixed time limit",5,"female","no","after a while it becomes nonconscious and you don't even realize what you're pressing",2,0,3,1,1,3,0,2,3,1,3,3,1,1,2,1,0,0,0,1,0,0,3,2,1,2,2,1,0,2,1,0,2,0,0,2,0,0,0,0,2,2,3,0,1,1,3,1,2,0,1,1,0,1,2,2,0,1,3,3,2,1,3,"628.1000000238419","<div style=""color:green; font-size:75px;""><b>$0.02</b></div><br><br><br><br><table><tr><td><img src=static/images/oddball_up.png></td><td><img src=static/images/oddball_down.png></td><td><img src=static/images/oddball_up.png></td></tr></table>","87","1","","","","","","","","","","","","","","","","","",""
"","html-keyboard-response",114,406244.270085907,"0.0-6.0-1.15-1.15",57,19,"f",1664222295065,750,"q","q","Only if I get the answer right","You win money","A fixed time limit",5,"female","no","after a while it becomes nonconscious and you don't even realize what you're pressing",2,0,3,1,1,3,0,2,3,1,3,3,1,1,2,1,0,0,0,1,0,0,3,2,1,2,2,1,0,2,1,0,2,0,0,2,0,0,0,0,2,2,3,0,1,1,3,1,2,0,1,1,0,1,2,2,0,1,3,3,2,1,3,"474.370085930585","","w","","true","0","15","up","down","1","w","1","0","1664222701652.27","","","false","60","15","0.25","0.02","false"
"","html-keyboard-response",115,407013,"0.0-6.0-1.16-0.16",57,19,"f",1664222295065,750,"q","q","Only if I get the answer right","You win money","A fixed time limit",5,"female","no","after a while it becomes nonconscious and you don't even realize what you're pressing",2,0,3,1,1,3,0,2,3,1,3,3,1,1,2,1,0,0,0,1,0,0,3,2,1,2,2,1,0,2,1,0,2,0,0,2,0,0,0,0,2,2,3,0,1,1,3,1,2,0,1,1,0,1,2,2,0,1,3,3,2,1,3,"614.6000000238419","<div style=""color:green; font-size:75px;""><b>$0.02</b></div><br><br><br><br><table><tr><td><img src=static/images/oddball_down.png></td><td><img src=static/images/oddball_up.png></td><td><img src=static/images/oddball_up.png></td></tr></table>","81","1","","","","","","","","","","","","","","","","","",""
"","html-keyboard-response",116,407023.312022679,"0.0-6.0-1.16-1.16",57,19,"f",1664222295065,750,"q","q","Only if I get the answer right","You win money","A fixed time limit",5,"female","no","after a while it becomes nonconscious and you don't even realize what you're pressing",2,0,3,1,1,3,0,2,3,1,3,3,1,1,2,1,0,0,0,1,0,0,3,2,1,2,2,1,0,2,1,0,2,0,0,2,0,0,0,0,2,2,3,0,1,1,3,1,2,0,1,1,0,1,2,2,0,1,3,3,2,1,3,"521.91202270317","","q","","true","0","16","up","down","0","q","1","0","1664222702431.31","","","false","60","16","0.266666666666667","0.02","false"
"","html-keyboard-response",117,407710,"0.0-6.0-1.17-0.17",57,19,"f",1664222295065,750,"q","q","Only if I get the answer right","You win money","A fixed time limit",5,"female","no","after a while it becomes nonconscious and you don't even realize what you're pressing",2,0,3,1,1,3,0,2,3,1,3,3,1,1,2,1,0,0,0,1,0,0,3,2,1,2,2,1,0,2,1,0,2,0,0,2,0,0,0,0,2,2,3,0,1,1,3,1,2,0,1,1,0,1,2,2,0,1,3,3,2,1,3,"592.1999999880791","<div style=""color:green; font-size:75px;""><b>$0.02</b></div><br><br><br><br><table><tr><td><img src=static/images/oddball_down.png></td><td><img src=static/images/oddball_down.png></td><td><img src=static/images/oddball_up.png></td></tr></table>","69","1","","","","","","","","","","","","","","","","","",""
"","html-keyboard-response",118,407921.847417839,"0.0-6.0-1.17-1.17",57,19,"f",1664222295065,750,"q","q","Only if I get the answer right","You win money","A fixed time limit",5,"female","no","after a while it becomes nonconscious and you don't even realize what you're pressing",2,0,3,1,1,3,0,2,3,1,3,3,1,1,2,1,0,0,0,1,0,0,3,2,1,2,2,1,0,2,1,0,2,0,0,2,0,0,0,0,2,2,3,0,1,1,3,1,2,0,1,1,0,1,2,2,0,1,3,3,2,1,3,"701.047417827558","","e","","true","0","17","down","up","2","e","1","0","1664222703329.85","","","false","60","17","0.283333333333333","0.02","false"
"","html-keyboard-response",119,408373,"0.0-6.0-1.18-0.18",57,19,"f",1664222295065,750,"q","q","Only if I get the answer right","You win money","A fixed time limit",5,"female","no","after a while it becomes nonconscious and you don't even realize what you're pressing",2,0,3,1,1,3,0,2,3,1,3,3,1,1,2,1,0,0,0,1,0,0,3,2,1,2,2,1,0,2,1,0,2,0,0,2,0,0,0,0,2,2,3,0,1,1,3,1,2,0,1,1,0,1,2,2,0,1,3,3,2,1,3,"558.8999999761581","<div style=""color:green; font-size:75px;""><b>$0.02</b></div><br><br><br><br><table><tr><td><img src=static/images/oddball_down.png></td><td><img src=static/images/oddball_up.png></td><td><img src=static/images/oddball_down.png></td></tr></table>","87","1","","","","","","","","","","","","","","","","","",""
"","html-keyboard-response",120,408626.954333147,"0.0-6.0-1.18-1.18",57,19,"f",1664222295065,750,"q","q","Only if I get the answer right","You win money","A fixed time limit",5,"female","no","after a while it becomes nonconscious and you don't even realize what you're pressing",2,0,3,1,1,3,0,2,3,1,3,3,1,1,2,1,0,0,0,1,0,0,3,2,1,2,2,1,0,2,1,0,2,0,0,2,0,0,0,0,2,2,3,0,1,1,3,1,2,0,1,1,0,1,2,2,0,1,3,3,2,1,3,"708.854333122937","","w","","true","0","18","down","up","1","w","1","0","1664222704034.95","","","false","60","18","0.3","0.02","false"
"","html-keyboard-response",121,409102,"0.0-6.0-1.19-0.19",57,19,"f",1664222295065,750,"q","q","Only if I get the answer right","You win money","A fixed time limit",5,"female","no","after a while it becomes nonconscious and you don't even realize what you're pressing",2,0,3,1,1,3,0,2,3,1,3,3,1,1,2,1,0,0,0,1,0,0,3,2,1,2,2,1,0,2,1,0,2,0,0,2,0,0,0,0,2,2,3,0,1,1,3,1,2,0,1,1,0,1,2,2,0,1,3,3,2,1,3,"623.2999999523163","<div style=""color:green; font-size:75px;""><b>$0.02</b></div><br><br><br><br><table><tr><td><img src=static/images/oddball_down.png></td><td><img src=static/images/oddball_down.png></td><td><img src=static/images/oddball_up.png></td></tr></table>","69","1","","","","","","","","","","","","","","","","","",""
"","html-keyboard-response",122,409089.314775716,"0.0-6.0-1.19-1.19",57,19,"f",1664222295065,750,"q","q","Only if I get the answer right","You win money","A fixed time limit",5,"female","no","after a while it becomes nonconscious and you don't even realize what you're pressing",2,0,3,1,1,3,0,2,3,1,3,3,1,1,2,1,0,0,0,1,0,0,3,2,1,2,2,1,0,2,1,0,2,0,0,2,0,0,0,0,2,2,3,0,1,1,3,1,2,0,1,1,0,1,2,2,0,1,3,3,2,1,3,"508.614775668714","","e","","true","0","19","down","up","2","e","1","0","1664222704497.31","","","false","60","19","0.316666666666667","0.02","false"
"","html-keyboard-response",123,409933,"0.0-6.0-1.20-0.20",57,19,"f",1664222295065,750,"q","q","Only if I get the answer right","You win money","A fixed time limit",5,"female","no","after a while it becomes nonconscious and you don't even realize what you're pressing",2,0,3,1,1,3,0,2,3,1,3,3,1,1,2,1,0,0,0,1,0,0,3,2,1,2,2,1,0,2,1,0,2,0,0,2,0,0,0,0,2,2,3,0,1,1,3,1,2,0,1,1,0,1,2,2,0,1,3,3,2,1,3,"729","<div style=""color:green; font-size:75px;""><b>$0.02</b></div><br><br><br><br><table><tr><td><img src=static/images/oddball_down.png></td><td><img src=static/images/oddball_up.png></td><td><img src=static/images/oddball_up.png></td></tr></table>","81","1","","","","","","","","","","","","","","","","","",""
"","html-keyboard-response",124,410024.072166773,"0.0-6.0-1.20-1.20",57,19,"f",1664222295065,750,"q","q","Only if I get the answer right","You win money","A fixed time limit",5,"female","no","after a while it becomes nonconscious and you don't even realize what you're pressing",2,0,3,1,1,3,0,2,3,1,3,3,1,1,2,1,0,0,0,1,0,0,3,2,1,2,2,1,0,2,1,0,2,0,0,2,0,0,0,0,2,2,3,0,1,1,3,1,2,0,1,1,0,1,2,2,0,1,3,3,2,1,3,"716.072","","q","","true","0","20","up","down","0","q","1","0","1664222705432.07","","","false","60","20","0.333333333333333","0.02","false"
"","html-keyboard-response",125,410653,"0.0-6.0-1.21-0.21",57,19,"f",1664222295065,750,"q","q","Only if I get the answer right","You win money","A fixed time limit",5,"female","no","after a while it becomes nonconscious and you don't even realize what you're pressing",2,0,3,1,1,3,0,2,3,1,3,3,1,1,2,1,0,0,0,1,0,0,3,2,1,2,2,1,0,2,1,0,2,0,0,2,0,0,0,0,2,2,3,0,1,1,3,1,2,0,1,1,0,1,2,2,0,1,3,3,2,1,3,"615.2999999523163","<div style=""color:green; font-size:75px;""><b>$0.02</b></div><br><br><br><br><table><tr><td><img src=static/images/oddball_down.png></td><td><img src=static/images/oddball_up.png></td><td><img src=static/images/oddball_down.png></td></tr></table>","87","1","","","","","","","","","","","","","","","","","",""
"","html-keyboard-response",126,410698.646286118,"0.0-6.0-1.21-1.21",57,19,"f",1664222295065,750,"q","q","Only if I get the answer right","You win money","A fixed time limit",5,"female","no","after a while it becomes nonconscious and you don't even realize what you're pressing",2,0,3,1,1,3,0,2,3,1,3,3,1,1,2,1,0,0,0,1,0,0,3,2,1,2,2,1,0,2,1,0,2,0,0,2,0,0,0,0,2,2,3,0,1,1,3,1,2,0,1,1,0,1,2,2,0,1,3,3,2,1,3,"557.946286069982","","w","","true","0","21","down","up","1","w","1","0","1664222706106.65","","","false","60","21","0.35","0.02","false"
"","html-keyboard-response",127,411301,"0.0-6.0-1.22-0.22",57,19,"f",1664222295065,750,"q","q","Only if I get the answer right","You win money","A fixed time limit",5,"female","no","after a while it becomes nonconscious and you don't even realize what you're pressing",2,0,3,1,1,3,0,2,3,1,3,3,1,1,2,1,0,0,0,1,0,0,3,2,1,2,2,1,0,2,1,0,2,0,0,2,0,0,0,0,2,2,3,0,1,1,3,1,2,0,1,1,0,1,2,2,0,1,3,3,2,1,3,"544.4000000357628","<div style=""color:green; font-size:75px;""><b>$0.02</b></div><br><br><br><br><table><tr><td><img src=static/images/oddball_up.png></td><td><img src=static/images/oddball_down.png></td><td><img src=static/images/oddball_down.png></td></tr></table>","81","1","","","","","","","","","","","","","","","","","",""
"","html-keyboard-response",128,411391.368872501,"0.0-6.0-1.22-1.22",57,19,"f",1664222295065,750,"q","q","Only if I get the answer right","You win money","A fixed time limit",5,"female","no","after a while it becomes nonconscious and you don't even realize what you're pressing",2,0,3,1,1,3,0,2,3,1,3,3,1,1,2,1,0,0,0,1,0,0,3,2,1,2,2,1,0,2,1,0,2,0,0,2,0,0,0,0,2,2,3,0,1,1,3,1,2,0,1,1,0,1,2,2,0,1,3,3,2,1,3,"528.768872537107","","q","","true","0","22","down","up","0","q","1","0","1664222706799.37","","","false","60","22","0.366666666666667","0.02","false"
"","html-keyboard-response",129,411957,"0.0-6.0-1.23-0.23",57,19,"f",1664222295065,750,"q","q","Only if I get the answer right","You win money","A fixed time limit",5,"female","no","after a while it becomes nonconscious and you don't even realize what you're pressing",2,0,3,1,1,3,0,2,3,1,3,3,1,1,2,1,0,0,0,1,0,0,3,2,1,2,2,1,0,2,1,0,2,0,0,2,0,0,0,0,2,2,3,0,1,1,3,1,2,0,1,1,0,1,2,2,0,1,3,3,2,1,3,"549.5999999642372","<div style=""color:green; font-size:75px;""><b>$0.02</b></div><br><br><br><br><table><tr><td><img src=static/images/oddball_down.png></td><td><img src=static/images/oddball_up.png></td><td><img src=static/images/oddball_down.png></td></tr></table>","87","1","","","","","","","","","","","","","","","","","",""
"","html-keyboard-response",130,412154.395117046,"0.0-6.0-1.23-1.23",57,19,"f",1664222295065,750,"q","q","Only if I get the answer right","You win money","A fixed time limit",5,"female","no","after a while it becomes nonconscious and you don't even realize what you're pressing",2,0,3,1,1,3,0,2,3,1,3,3,1,1,2,1,0,0,0,1,0,0,3,2,1,2,2,1,0,2,1,0,2,0,0,2,0,0,0,0,2,2,3,0,1,1,3,1,2,0,1,1,0,1,2,2,0,1,3,3,2,1,3,"644.995117009947","","w","","true","0","23","down","up","1","w","1","0","1664222707562.4","","","false","60","23","0.383333333333333","0.02","false"
"","html-keyboard-response",131,412717,"0.0-6.0-1.24-0.24",57,19,"f",1664222295065,750,"q","q","Only if I get the answer right","You win money","A fixed time limit",5,"female","no","after a while it becomes nonconscious and you don't even realize what you're pressing",2,0,3,1,1,3,0,2,3,1,3,3,1,1,2,1,0,0,0,1,0,0,3,2,1,2,2,1,0,2,1,0,2,0,0,2,0,0,0,0,2,2,3,0,1,1,3,1,2,0,1,1,0,1,2,2,0,1,3,3,2,1,3,"658","<div style=""color:green; font-size:75px;""><b>$0.02</b></div><br><br><br><br><table><tr><td><img src=static/images/oddball_down.png></td><td><img src=static/images/oddball_down.png></td><td><img src=static/images/oddball_up.png></td></tr></table>","69","1","","","","","","","","","","","","","","","","","",""
"","html-keyboard-response",132,412821.32005391,"0.0-6.0-1.24-1.24",57,19,"f",1664222295065,750,"q","q","Only if I get the answer right","You win money","A fixed time limit",5,"female","no","after a while it becomes nonconscious and you don't even realize what you're pressing",2,0,3,1,1,3,0,2,3,1,3,3,1,1,2,1,0,0,0,1,0,0,3,2,1,2,2,1,0,2,1,0,2,0,0,2,0,0,0,0,2,2,3,0,1,1,3,1,2,0,1,1,0,1,2,2,0,1,3,3,2,1,3,"652.32","","e","","true","0","24","down","up","2","e","1","0","1664222708229.32","","","false","60","24","0.4","0.02","false"
"","html-keyboard-response",133,413582,"0.0-6.0-1.25-0.25",57,19,"f",1664222295065,750,"q","q","Only if I get the answer right","You win money","A fixed time limit",5,"female","no","after a while it becomes nonconscious and you don't even realize what you're pressing",2,0,3,1,1,3,0,2,3,1,3,3,1,1,2,1,0,0,0,1,0,0,3,2,1,2,2,1,0,2,1,0,2,0,0,2,0,0,0,0,2,2,3,0,1,1,3,1,2,0,1,1,0,1,2,2,0,1,3,3,2,1,3,"753.6999999880791","<div style=""color:green; font-size:75px;""><b>$0.02</b></div><br><br><br><br><table><tr><td><img src=static/images/oddball_up.png></td><td><img src=static/images/oddball_down.png></td><td><img src=static/images/oddball_up.png></td></tr></table>","87","1","","","","","","","","","","","","","","","","","",""
"","html-keyboard-response",134,413658.672162371,"0.0-6.0-1.25-1.25",57,19,"f",1664222295065,750,"q","q","Only if I get the answer right","You win money","A fixed time limit",5,"female","no","after a while it becomes nonconscious and you don't even realize what you're pressing",2,0,3,1,1,3,0,2,3,1,3,3,1,1,2,1,0,0,0,1,0,0,3,2,1,2,2,1,0,2,1,0,2,0,0,2,0,0,0,0,2,2,3,0,1,1,3,1,2,0,1,1,0,1,2,2,0,1,3,3,2,1,3,"717.372162359301","","w","","true","0","25","up","down","1","w","1","0","1664222709066.67","","","false","60","25","0.416666666666667","0.02","false"
"","html-keyboard-response",135,414230,"0.0-6.0-1.26-0.26",57,19,"f",1664222295065,750,"q","q","Only if I get the answer right","You win money","A fixed time limit",5,"female","no","after a while it becomes nonconscious and you don't even realize what you're pressing",2,0,3,1,1,3,0,2,3,1,3,3,1,1,2,1,0,0,0,1,0,0,3,2,1,2,2,1,0,2,1,0,2,0,0,2,0,0,0,0,2,2,3,0,1,1,3,1,2,0,1,1,0,1,2,2,0,1,3,3,2,1,3,"533.7999999523163","<div style=""color:green; font-size:75px;""><b>$0.02</b></div><br><br><br><br><table><tr><td><img src=static/images/oddball_down.png></td><td><img src=static/images/oddball_up.png></td><td><img src=static/images/oddball_up.png></td></tr></table>","81","1","","","","","","","","","","","","","","","","","",""
"","html-keyboard-response",136,414483.350270213,"0.0-6.0-1.26-1.26",57,19,"f",1664222295065,750,"q","q","Only if I get the answer right","You win money","A fixed time limit",5,"female","no","after a while it becomes nonconscious and you don't even realize what you're pressing",2,0,3,1,1,3,0,2,3,1,3,3,1,1,2,1,0,0,0,1,0,0,3,2,1,2,2,1,0,2,1,0,2,0,0,2,0,0,0,0,2,2,3,0,1,1,3,1,2,0,1,1,0,1,2,2,0,1,3,3,2,1,3,"672.150270165009","","q","","true","0","26","up","down","0","q","1","0","1664222709892.35","","","false","60","26","0.433333333333333","0.02","false"
"","html-keyboard-response",137,414877,"0.0-6.0-1.27-0.27",57,19,"f",1664222295065,750,"q","q","Only if I get the answer right","You win money","A fixed time limit",5,"female","no","after a while it becomes nonconscious and you don't even realize what you're pressing",2,0,3,1,1,3,0,2,3,1,3,3,1,1,2,1,0,0,0,1,0,0,3,2,1,2,2,1,0,2,1,0,2,0,0,2,0,0,0,0,2,2,3,0,1,1,3,1,2,0,1,1,0,1,2,2,0,1,3,3,2,1,3,"531.2999999523163","<div style=""color:green; font-size:75px;""><b>$0.02</b></div><br><br><br><br><table><tr><td><img src=static/images/oddball_up.png></td><td><img src=static/images/oddball_down.png></td><td><img src=static/images/oddball_down.png></td></tr></table>","81","1","","","","","","","","","","","","","","","","","",""
"","html-keyboard-response",138,414981.491324037,"0.0-6.0-1.27-1.27",57,19,"f",1664222295065,750,"q","q","Only if I get the answer right","You win money","A fixed time limit",5,"female","no","after a while it becomes nonconscious and you don't even realize what you're pressing",2,0,3,1,1,3,0,2,3,1,3,3,1,1,2,1,0,0,0,1,0,0,3,2,1,2,2,1,0,2,1,0,2,0,0,2,0,0,0,0,2,2,3,0,1,1,3,1,2,0,1,1,0,1,2,2,0,1,3,3,2,1,3,"531.791323989214","","q","","true","0","27","down","up","0","q","1","0","1664222710389.49","","","false","60","27","0.45","0.02","false"
"","html-keyboard-response",139,415565,"0.0-6.0-1.28-0.28",57,19,"f",1664222295065,750,"q","q","Only if I get the answer right","You win money","A fixed time limit",5,"female","no","after a while it becomes nonconscious and you don't even realize what you're pressing",2,0,3,1,1,3,0,2,3,1,3,3,1,1,2,1,0,0,0,1,0,0,3,2,1,2,2,1,0,2,1,0,2,0,0,2,0,0,0,0,2,2,3,0,1,1,3,1,2,0,1,1,0,1,2,2,0,1,3,3,2,1,3,"583.6999999880791","<div style=""color:green; font-size:75px;""><b>$0.02</b></div><br><br><br><br><table><tr><td><img src=static/images/oddball_down.png></td><td><img src=static/images/oddball_up.png></td><td><img src=static/images/oddball_up.png></td></tr></table>","81","1","","","","","","","","","","","","","","","","","",""
"","html-keyboard-response",140,415692.826798861,"0.0-6.0-1.28-1.28",57,19,"f",1664222295065,750,"q","q","Only if I get the answer right","You win money","A fixed time limit",5,"female","no","after a while it becomes nonconscious and you don't even realize what you're pressing",2,0,3,1,1,3,0,2,3,1,3,3,1,1,2,1,0,0,0,1,0,0,3,2,1,2,2,1,0,2,1,0,2,0,0,2,0,0,0,0,2,2,3,0,1,1,3,1,2,0,1,1,0,1,2,2,0,1,3,3,2,1,3,"595.526798849117","","q","","true","0","28","up","down","0","q","1","0","1664222711100.83","","","false","60","28","0.466666666666667","0.02","false"
"","html-keyboard-response",141,416221,"0.0-6.0-1.29-0.29",57,19,"f",1664222295065,750,"q","q","Only if I get the answer right","You win money","A fixed time limit",5,"female","no","after a while it becomes nonconscious and you don't even realize what you're pressing",2,0,3,1,1,3,0,2,3,1,3,3,1,1,2,1,0,0,0,1,0,0,3,2,1,2,2,1,0,2,1,0,2,0,0,2,0,0,0,0,2,2,3,0,1,1,3,1,2,0,1,1,0,1,2,2,0,1,3,3,2,1,3,"539.5999999642372","<div style=""color:green; font-size:75px;""><b>$0.02</b></div><br><br><br><br><table><tr><td><img src=static/images/oddball_down.png></td><td><img src=static/images/oddball_down.png></td><td><img src=static/images/oddball_up.png></td></tr></table>","69","1","","","","","","","","","","","","","","","","","",""
"","html-keyboard-response",142,416281.709045907,"0.0-6.0-1.29-1.29",57,19,"f",1664222295065,750,"q","q","Only if I get the answer right","You win money","A fixed time limit",5,"female","no","after a while it becomes nonconscious and you don't even realize what you're pressing",2,0,3,1,1,3,0,2,3,1,3,3,1,1,2,1,0,0,0,1,0,0,3,2,1,2,2,1,0,2,1,0,2,0,0,2,0,0,0,0,2,2,3,0,1,1,3,1,2,0,1,1,0,1,2,2,0,1,3,3,2,1,3,"487.309045871566","","e","","true","0","29","down","up","2","e","1","0","1664222711689.71","","","false","60","29","0.483333333333333","0.02","false"
"","html-keyboard-response",143,416909,"0.0-6.0-1.30-0.30",57,19,"f",1664222295065,750,"q","q","Only if I get the answer right","You win money","A fixed time limit",5,"female","no","after a while it becomes nonconscious and you don't even realize what you're pressing",2,0,3,1,1,3,0,2,3,1,3,3,1,1,2,1,0,0,0,1,0,0,3,2,1,2,2,1,0,2,1,0,2,0,0,2,0,0,0,0,2,2,3,0,1,1,3,1,2,0,1,1,0,1,2,2,0,1,3,3,2,1,3,"575.1999999880791","<div style=""color:green; font-size:75px;""><b>$0.02</b></div><br><br><br><br><table><tr><td><img src=static/images/oddball_up.png></td><td><img src=static/images/oddball_up.png></td><td><img src=static/images/oddball_down.png></td></tr></table>","69","1","","","","","","","","","","","","","","","","","",""
"","html-keyboard-response",144,417115.149194869,"0.0-6.0-1.30-1.30",57,19,"f",1664222295065,750,"q","q","Only if I get the answer right","You win money","A fixed time limit",5,"female","no","after a while it becomes nonconscious and you don't even realize what you're pressing",2,0,3,1,1,3,0,2,3,1,3,3,1,1,2,1,0,0,0,1,0,0,3,2,1,2,2,1,0,2,1,0,2,0,0,2,0,0,0,0,2,2,3,0,1,1,3,1,2,0,1,1,0,1,2,2,0,1,3,3,2,1,3,"672.349194856645","","e","","true","0","30","up","down","2","e","1","0","1664222712523.15","","","false","60","30","0.5","0.02","false"
"","html-keyboard-response",145,417549,"0.0-6.0-1.31-0.31",57,19,"f",1664222295065,750,"q","q","Only if I get the answer right","You win money","A fixed time limit",5,"female","no","after a while it becomes nonconscious and you don't even realize what you're pressing",2,0,3,1,1,3,0,2,3,1,3,3,1,1,2,1,0,0,0,1,0,0,3,2,1,2,2,1,0,2,1,0,2,0,0,2,0,0,0,0,2,2,3,0,1,1,3,1,2,0,1,1,0,1,2,2,0,1,3,3,2,1,3,"530.9000000357628","<div style=""color:green; font-size:75px;""><b>$0.02</b></div><br><br><br><br><table><tr><td><img src=static/images/oddball_down.png></td><td><img src=static/images/oddball_up.png></td><td><img src=static/images/oddball_up.png></td></tr></table>","81","1","","","","","","","","","","","","","","","","","",""
"","html-keyboard-response",146,417755.195236038,"0.0-6.0-1.31-1.31",57,19,"f",1664222295065,750,"q","q","Only if I get the answer right","You win money","A fixed time limit",5,"female","no","after a while it becomes nonconscious and you don't even realize what you're pressing",2,0,3,1,1,3,0,2,3,1,3,3,1,1,2,1,0,0,0,1,0,0,3,2,1,2,2,1,0,2,1,0,2,0,0,2,0,0,0,0,2,2,3,0,1,1,3,1,2,0,1,1,0,1,2,2,0,1,3,3,2,1,3,"633.095236074238","","q","","true","0","31","up","down","0","q","1","0","1664222713163.2","","","false","60","31","0.516666666666667","0.02","false"
"","html-keyboard-response",147,418181,"0.0-6.0-1.32-0.32",57,19,"f",1664222295065,750,"q","q","Only if I get the answer right","You win money","A fixed time limit",5,"female","no","after a while it becomes nonconscious and you don't even realize what you're pressing",2,0,3,1,1,3,0,2,3,1,3,3,1,1,2,1,0,0,0,1,0,0,3,2,1,2,2,1,0,2,1,0,2,0,0,2,0,0,0,0,2,2,3,0,1,1,3,1,2,0,1,1,0,1,2,2,0,1,3,3,2,1,3,"528","<div style=""color:green; font-size:75px;""><b>$0.02</b></div><br><br><br><br><table><tr><td><img src=static/images/oddball_up.png></td><td><img src=static/images/oddball_down.png></td><td><img src=static/images/oddball_up.png></td></tr></table>","87","1","","","","","","","","","","","","","","","","","",""
"","html-keyboard-response",148,418201.735738292,"0.0-6.0-1.32-1.32",57,19,"f",1664222295065,750,"q","q","Only if I get the answer right","You win money","A fixed time limit",5,"female","no","after a while it becomes nonconscious and you don't even realize what you're pressing",2,0,3,1,1,3,0,2,3,1,3,3,1,1,2,1,0,0,0,1,0,0,3,2,1,2,2,1,0,2,1,0,2,0,0,2,0,0,0,0,2,2,3,0,1,1,3,1,2,0,1,1,0,1,2,2,0,1,3,3,2,1,3,"442.736","","w","","true","0","32","up","down","1","w","1","0","1664222713609.74","","","false","60","32","0.533333333333333","0.02","false"
"","html-keyboard-response",149,418893,"0.0-6.0-1.33-0.33",57,19,"f",1664222295065,750,"q","q","Only if I get the answer right","You win money","A fixed time limit",5,"female","no","after a while it becomes nonconscious and you don't even realize what you're pressing",2,0,3,1,1,3,0,2,3,1,3,3,1,1,2,1,0,0,0,1,0,0,3,2,1,2,2,1,0,2,1,0,2,0,0,2,0,0,0,0,2,2,3,0,1,1,3,1,2,0,1,1,0,1,2,2,0,1,3,3,2,1,3,"605.3000000119209","<div style=""color:green; font-size:75px;""><b>$0.02</b></div><br><br><br><br><table><tr><td><img src=static/images/oddball_down.png></td><td><img src=static/images/oddball_up.png></td><td><img src=static/images/oddball_up.png></td></tr></table>","81","1","","","","","","","","","","","","","","","","","",""
"","html-keyboard-response",150,418942.806559856,"0.0-6.0-1.33-1.33",57,19,"f",1664222295065,750,"q","q","Only if I get the answer right","You win money","A fixed time limit",5,"female","no","after a while it becomes nonconscious and you don't even realize what you're pressing",2,0,3,1,1,3,0,2,3,1,3,3,1,1,2,1,0,0,0,1,0,0,3,2,1,2,2,1,0,2,1,0,2,0,0,2,0,0,0,0,2,2,3,0,1,1,3,1,2,0,1,1,0,1,2,2,0,1,3,3,2,1,3,"543.106559868283","","q","","true","0","33","up","down","0","q","1","0","1664222714350.81","","","false","60","33","0.55","0.02","false"
"","html-keyboard-response",151,419574,"0.0-6.0-1.34-0.34",57,19,"f",1664222295065,750,"q","q","Only if I get the answer right","You win money","A fixed time limit",5,"female","no","after a while it becomes nonconscious and you don't even realize what you're pressing",2,0,3,1,1,3,0,2,3,1,3,3,1,1,2,1,0,0,0,1,0,0,3,2,1,2,2,1,0,2,1,0,2,0,0,2,0,0,0,0,2,2,3,0,1,1,3,1,2,0,1,1,0,1,2,2,0,1,3,3,2,1,3,"567.6999999880791","<div style=""color:green; font-size:75px;""><b>$0.02</b></div><br><br><br><br><table><tr><td><img src=static/images/oddball_down.png></td><td><img src=static/images/oddball_up.png></td><td><img src=static/images/oddball_up.png></td></tr></table>","81","1","","","","","","","","","","","","","","","","","",""
"","html-keyboard-response",152,419787.984690425,"0.0-6.0-1.34-1.34",57,19,"f",1664222295065,750,"q","q","Only if I get the answer right","You win money","A fixed time limit",5,"female","no","after a while it becomes nonconscious and you don't even realize what you're pressing",2,0,3,1,1,3,0,2,3,1,3,3,1,1,2,1,0,0,0,1,0,0,3,2,1,2,2,1,0,2,1,0,2,0,0,2,0,0,0,0,2,2,3,0,1,1,3,1,2,0,1,1,0,1,2,2,0,1,3,3,2,1,3,"666.684690413007","","q","","true","0","34","up","down","0","q","1","0","1664222715195.98","","","false","60","34","0.566666666666667","0.02","false"
"","html-keyboard-response",153,420293,"0.0-6.0-1.35-0.35",57,19,"f",1664222295065,750,"q","q","Only if I get the answer right","You win money","A fixed time limit",5,"female","no","after a while it becomes nonconscious and you don't even realize what you're pressing",2,0,3,1,1,3,0,2,3,1,3,3,1,1,2,1,0,0,0,1,0,0,3,2,1,2,2,1,0,2,1,0,2,0,0,2,0,0,0,0,2,2,3,0,1,1,3,1,2,0,1,1,0,1,2,2,0,1,3,3,2,1,3,"604","<div style=""color:green; font-size:75px;""><b>$0.02</b></div><br><br><br><br><table><tr><td><img src=static/images/oddball_down.png></td><td><img src=static/images/oddball_down.png></td><td><img src=static/images/oddball_up.png></td></tr></table>","69","1","","","","","","","","","","","","","","","","","",""
"","html-keyboard-response",154,420502.175333816,"0.0-6.0-1.35-1.35",57,19,"f",1664222295065,750,"q","q","Only if I get the answer right","You win money","A fixed time limit",5,"female","no","after a while it becomes nonconscious and you don't even realize what you're pressing",2,0,3,1,1,3,0,2,3,1,3,3,1,1,2,1,0,0,0,1,0,0,3,2,1,2,2,1,0,2,1,0,2,0,0,2,0,0,0,0,2,2,3,0,1,1,3,1,2,0,1,1,0,1,2,2,0,1,3,3,2,1,3,"701.175","","e","","true","0","35","down","up","2","e","1","0","1664222715910.18","","","false","60","35","0.583333333333333","0.02","false"
"","html-keyboard-response",155,420981,"0.0-6.0-1.36-0.36",57,19,"f",1664222295065,750,"q","q","Only if I get the answer right","You win money","A fixed time limit",5,"female","no","after a while it becomes nonconscious and you don't even realize what you're pressing",2,0,3,1,1,3,0,2,3,1,3,3,1,1,2,1,0,0,0,1,0,0,3,2,1,2,2,1,0,2,1,0,2,0,0,2,0,0,0,0,2,2,3,0,1,1,3,1,2,0,1,1,0,1,2,2,0,1,3,3,2,1,3,"575.1999999880791","<div style=""color:green; font-size:75px;""><b>$0.02</b></div><br><br><br><br><table><tr><td><img src=static/images/oddball_down.png></td><td><img src=static/images/oddball_up.png></td><td><img src=static/images/oddball_up.png></td></tr></table>","81","1","","","","","","","","","","","","","","","","","",""
"","html-keyboard-response",156,421113.227446169,"0.0-6.0-1.36-1.36",57,19,"f",1664222295065,750,"q","q","Only if I get the answer right","You win money","A fixed time limit",5,"female","no","after a while it becomes nonconscious and you don't even realize what you're pressing",2,0,3,1,1,3,0,2,3,1,3,3,1,1,2,1,0,0,0,1,0,0,3,2,1,2,2,1,0,2,1,0,2,0,0,2,0,0,0,0,2,2,3,0,1,1,3,1,2,0,1,1,0,1,2,2,0,1,3,3,2,1,3,"603.427446157236","","q","","true","0","36","up","down","0","q","1","0","1664222716521.23","","","false","60","36","0.6","0.02","false"
"","html-keyboard-response",157,421685,"0.0-6.0-1.37-0.37",57,19,"f",1664222295065,750,"q","q","Only if I get the answer right","You win money","A fixed time limit",5,"female","no","after a while it becomes nonconscious and you don't even realize what you're pressing",2,0,3,1,1,3,0,2,3,1,3,3,1,1,2,1,0,0,0,1,0,0,3,2,1,2,2,1,0,2,1,0,2,0,0,2,0,0,0,0,2,2,3,0,1,1,3,1,2,0,1,1,0,1,2,2,0,1,3,3,2,1,3,"599.5","<div style=""color:green; font-size:75px;""><b>$0.02</b></div><br><br><br><br><table><tr><td><img src=static/images/oddball_down.png></td><td><img src=static/images/oddball_up.png></td><td><img src=static/images/oddball_down.png></td></tr></table>","87","1","","","","","","","","","","","","","","","","","",""
"","html-keyboard-response",158,421890.192581004,"0.0-6.0-1.37-1.37",57,19,"f",1664222295065,750,"q","q","Only if I get the answer right","You win money","A fixed time limit",5,"female","no","after a while it becomes nonconscious and you don't even realize what you're pressing",2,0,3,1,1,3,0,2,3,1,3,3,1,1,2,1,0,0,0,1,0,0,3,2,1,2,2,1,0,2,1,0,2,0,0,2,0,0,0,0,2,2,3,0,1,1,3,1,2,0,1,1,0,1,2,2,0,1,3,3,2,1,3,"696.69258","","w","","true","0","37","down","up","1","w","1","0","1664222717299.19","","","false","60","37","0.616666666666667","0.02","false"
"","html-keyboard-response",159,422325,"0.0-6.0-1.38-0.38",57,19,"f",1664222295065,750,"q","q","Only if I get the answer right","You win money","A fixed time limit",5,"female","no","after a while it becomes nonconscious and you don't even realize what you're pressing",2,0,3,1,1,3,0,2,3,1,3,3,1,1,2,1,0,0,0,1,0,0,3,2,1,2,2,1,0,2,1,0,2,0,0,2,0,0,0,0,2,2,3,0,1,1,3,1,2,0,1,1,0,1,2,2,0,1,3,3,2,1,3,"531.2999999523163","<div style=""color:green; font-size:75px;""><b>$0.02</b></div><br><br><br><br><table><tr><td><img src=static/images/oddball_down.png></td><td><img src=static/images/oddball_up.png></td><td><img src=static/images/oddball_down.png></td></tr></table>","87","1","","","","","","","","","","","","","","","","","",""
"","html-keyboard-response",160,422458.882218098,"0.0-6.0-1.38-1.38",57,19,"f",1664222295065,750,"q","q","Only if I get the answer right","You win money","A fixed time limit",5,"female","no","after a while it becomes nonconscious and you don't even realize what you're pressing",2,0,3,1,1,3,0,2,3,1,3,3,1,1,2,1,0,0,0,1,0,0,3,2,1,2,2,1,0,2,1,0,2,0,0,2,0,0,0,0,2,2,3,0,1,1,3,1,2,0,1,1,0,1,2,2,0,1,3,3,2,1,3,"562.18221805037","","w","","true","0","38","down","up","1","w","1","0","1664222717866.88","","","false","60","38","0.633333333333333","0.02","false"
"","html-keyboard-response",161,423061,"0.0-6.0-1.39-0.39",57,19,"f",1664222295065,750,"q","q","Only if I get the answer right","You win money","A fixed time limit",5,"female","no","after a while it becomes nonconscious and you don't even realize what you're pressing",2,0,3,1,1,3,0,2,3,1,3,3,1,1,2,1,0,0,0,1,0,0,3,2,1,2,2,1,0,2,1,0,2,0,0,2,0,0,0,0,2,2,3,0,1,1,3,1,2,0,1,1,0,1,2,2,0,1,3,3,2,1,3,"632.5","<div style=""color:green; font-size:75px;""><b>$0.02</b></div><br><br><br><br><table><tr><td><img src=static/images/oddball_up.png></td><td><img src=static/images/oddball_up.png></td><td><img src=static/images/oddball_down.png></td></tr></table>","69","1","","","","","","","","","","","","","","","","","",""
"","html-keyboard-response",162,423185.841054646,"0.0-6.0-1.39-1.39",57,19,"f",1664222295065,750,"q","q","Only if I get the answer right","You win money","A fixed time limit",5,"female","no","after a while it becomes nonconscious and you don't even realize what you're pressing",2,0,3,1,1,3,0,2,3,1,3,3,1,1,2,1,0,0,0,1,0,0,3,2,1,2,2,1,0,2,1,0,2,0,0,2,0,0,0,0,2,2,3,0,1,1,3,1,2,0,1,1,0,1,2,2,0,1,3,3,2,1,3,"655.34105","","e","","true","0","39","up","down","2","e","1","0","1664222718593.84","","","false","60","39","0.65","0.02","false"
"","html-keyboard-response",163,423741,"0.0-6.0-1.40-0.40",57,19,"f",1664222295065,750,"q","q","Only if I get the answer right","You win money","A fixed time limit",5,"female","no","after a while it becomes nonconscious and you don't even realize what you're pressing",2,0,3,1,1,3,0,2,3,1,3,3,1,1,2,1,0,0,0,1,0,0,3,2,1,2,2,1,0,2,1,0,2,0,0,2,0,0,0,0,2,2,3,0,1,1,3,1,2,0,1,1,0,1,2,2,0,1,3,3,2,1,3,"577.6999999880791","<div style=""color:green; font-size:75px;""><b>$0.02</b></div><br><br><br><br><table><tr><td><img src=static/images/oddball_down.png></td><td><img src=static/images/oddball_down.png></td><td><img src=static/images/oddball_up.png></td></tr></table>","69","1","","","","","","","","","","","","","","","","","",""
"","html-keyboard-response",164,423800.956470048,"0.0-6.0-1.40-1.40",57,19,"f",1664222295065,750,"q","q","Only if I get the answer right","You win money","A fixed time limit",5,"female","no","after a while it becomes nonconscious and you don't even realize what you're pressing",2,0,3,1,1,3,0,2,3,1,3,3,1,1,2,1,0,0,0,1,0,0,3,2,1,2,2,1,0,2,1,0,2,0,0,2,0,0,0,0,2,2,3,0,1,1,3,1,2,0,1,1,0,1,2,2,0,1,3,3,2,1,3,"531.656470036468","","e","","true","0","40","down","up","2","e","1","0","1664222719209.96","","","false","60","40","0.666666666666667","0.02","false"
"","html-keyboard-response",165,424381,"0.0-6.0-1.41-0.41",57,19,"f",1664222295065,750,"q","q","Only if I get the answer right","You win money","A fixed time limit",5,"female","no","after a while it becomes nonconscious and you don't even realize what you're pressing",2,0,3,1,1,3,0,2,3,1,3,3,1,1,2,1,0,0,0,1,0,0,3,2,1,2,2,1,0,2,1,0,2,0,0,2,0,0,0,0,2,2,3,0,1,1,3,1,2,0,1,1,0,1,2,2,0,1,3,3,2,1,3,"533.2999999523163","<div style=""color:green; font-size:75px;""><b>$0.02</b></div><br><br><br><br><table><tr><td><img src=static/images/oddball_down.png></td><td><img src=static/images/oddball_up.png></td><td><img src=static/images/oddball_up.png></td></tr></table>","81","1","","","","","","","","","","","","","","","","","",""
"","html-keyboard-response",166,424579.572200024,"0.0-6.0-1.41-1.41",57,19,"f",1664222295065,750,"q","q","Only if I get the answer right","You win money","A fixed time limit",5,"female","no","after a while it becomes nonconscious and you don't even realize what you're pressing",2,0,3,1,1,3,0,2,3,1,3,3,1,1,2,1,0,0,0,1,0,0,3,2,1,2,2,1,0,2,1,0,2,0,0,2,0,0,0,0,2,2,3,0,1,1,3,1,2,0,1,1,0,1,2,2,0,1,3,3,2,1,3,"629.87219997639","","q","","true","0","41","up","down","0","q","1","0","1664222719987.57","","","false","60","41","0.683333333333333","0.02","false"
