"success","trial_type","trial_index","time_elapsed","internal_node_id","subject","age","sex","date","deadline","instQ1","instQ2","instQ3","instQ4","instQ5","totalInstQ","gender","strategy","comments","DASS1_s","DASS2_a","DASS3_d","DASS4_a","DASS5_d","DASS6_s","DASS7_a","DASS8_s","DASS9_a","DASS10_d","DASS11_s","DASS12_s","DASS13_d","DASS14_s","DASS15_a","DASS16_d","DASS17_d","DASS18_s","DASS19_a","DASS20_a","DASS21_d","BB1","BB2","BB3","BB4","BB5","BB6","BB7","BB8","BB9","BB10","BB11","BB12","BB13","BB14","BB15","BB16","BB17","BB18","BB19","BB20","BB21","BB22","BB23","BB24","NFC1","NFC2","NFC3","NFC4","NFC5","NFC6","NFC7","NFC8","NFC9","NFC10","NFC11","NFC12","NFC13","NFC14","NFC15","NFC16","NFC17","NFC18","rt","stimulus","key_press","npress","isDataTrial","block","trialinblock","common","odd","oddidx","correct_ans","accuracy","totalTokens","timestamp","responses","question_order","showprog","blocklen","trial","progress","reward","timedout"
"true","fullscreen",0,4822,"0.0-0.0",74,18,FALSE,1665691244889,750,"q","q","Only if I get the answer right","You win money","A fixed time limit",5,"female","taking a break between the rounds ","no",1,0,0,0,0,1,0,0,0,0,0,0,0,0,0,0,0,0,0,0,0,1,3,0,0,1,0,1,0,0,1,3,2,0,2,3,3,0,2,0,2,3,3,0,0,0,0,3,2,1,0,1,2,3,3,1,1,1,0,2,1,3,4,"","","","","","","","","","","","","","","","","","","","","",""
"","image-keyboard-response",1,157135,"0.0-1.0-0.0",74,18,FALSE,1665691244889,750,"q","q","Only if I get the answer right","You win money","A fixed time limit",5,"female","taking a break between the rounds ","no",1,0,0,0,0,1,0,0,0,0,0,0,0,0,0,0,0,0,0,0,0,1,3,0,0,1,0,1,0,0,1,3,2,0,2,3,3,0,2,0,2,3,3,0,0,0,0,3,2,1,0,1,2,3,3,1,1,1,0,2,1,3,4,"152301.3999999985","static/images/instructions/Slide1.png","39","","","","","","","","","","","","","","","","","","",""
"","image-keyboard-response",2,161379,"0.0-1.1-0.1",74,18,FALSE,1665691244889,750,"q","q","Only if I get the answer right","You win money","A fixed time limit",5,"female","taking a break between the rounds ","no",1,0,0,0,0,1,0,0,0,0,0,0,0,0,0,0,0,0,0,0,0,1,3,0,0,1,0,1,0,0,1,3,2,0,2,3,3,0,2,0,2,3,3,0,0,0,0,3,2,1,0,1,2,3,3,1,1,1,0,2,1,3,4,"4242.79999999702","static/images/instructions/Slide2.png","39","","","","","","","","","","","","","","","","","","",""
"","image-keyboard-response",3,169427,"0.0-1.2-0.2",74,18,FALSE,1665691244889,750,"q","q","Only if I get the answer right","You win money","A fixed time limit",5,"female","taking a break between the rounds ","no",1,0,0,0,0,1,0,0,0,0,0,0,0,0,0,0,0,0,0,0,0,1,3,0,0,1,0,1,0,0,1,3,2,0,2,3,3,0,2,0,2,3,3,0,0,0,0,3,2,1,0,1,2,3,3,1,1,1,0,2,1,3,4,"8047.39999999851","static/images/instructions/Slide3.png","39","","","","","","","","","","","","","","","","","","",""
"","image-keyboard-response",4,171803,"0.0-1.3-0.3",74,18,FALSE,1665691244889,750,"q","q","Only if I get the answer right","You win money","A fixed time limit",5,"female","taking a break between the rounds ","no",1,0,0,0,0,1,0,0,0,0,0,0,0,0,0,0,0,0,0,0,0,1,3,0,0,1,0,1,0,0,1,3,2,0,2,3,3,0,2,0,2,3,3,0,0,0,0,3,2,1,0,1,2,3,3,1,1,1,0,2,1,3,4,"2375.2000000029802","static/images/instructions/Slide4.png","39","","","","","","","","","","","","","","","","","","",""
"","image-keyboard-response",5,174163,"0.0-1.4-0.4",74,18,FALSE,1665691244889,750,"q","q","Only if I get the answer right","You win money","A fixed time limit",5,"female","taking a break between the rounds ","no",1,0,0,0,0,1,0,0,0,0,0,0,0,0,0,0,0,0,0,0,0,1,3,0,0,1,0,1,0,0,1,3,2,0,2,3,3,0,2,0,2,3,3,0,0,0,0,3,2,1,0,1,2,3,3,1,1,1,0,2,1,3,4,"2335.9000000059605","static/images/instructions/Slide5.png","39","","","","","","","","","","","","","","","","","","",""
"","image-keyboard-response",6,176083,"0.0-1.5-0.5",74,18,FALSE,1665691244889,750,"q","q","Only if I get the answer right","You win money","A fixed time limit",5,"female","taking a break between the rounds ","no",1,0,0,0,0,1,0,0,0,0,0,0,0,0,0,0,0,0,0,0,0,1,3,0,0,1,0,1,0,0,1,3,2,0,2,3,3,0,2,0,2,3,3,0,0,0,0,3,2,1,0,1,2,3,3,1,1,1,0,2,1,3,4,"1919.3000000044703","static/images/instructions/Slide6.png","39","","","","","","","","","","","","","","","","","","",""
"","image-keyboard-response",7,205067,"0.0-1.6-0.6",74,18,FALSE,1665691244889,750,"q","q","Only if I get the answer right","You win money","A fixed time limit",5,"female","taking a break between the rounds ","no",1,0,0,0,0,1,0,0,0,0,0,0,0,0,0,0,0,0,0,0,0,1,3,0,0,1,0,1,0,0,1,3,2,0,2,3,3,0,2,0,2,3,3,0,0,0,0,3,2,1,0,1,2,3,3,1,1,1,0,2,1,3,4,"28983.5","static/images/instructions/Slide7.png","39","","","","","","","","","","","","","","","","","","",""
"","html-keyboard-response",8,206075,"0.0-2.0-0.0",74,18,FALSE,1665691244889,750,"q","q","Only if I get the answer right","You win money","A fixed time limit",5,"female","taking a break between the rounds ","no",1,0,0,0,0,1,0,0,0,0,0,0,0,0,0,0,0,0,0,0,0,1,3,0,0,1,0,1,0,0,1,3,2,0,2,3,3,0,2,0,2,3,3,0,0,0,0,3,2,1,0,1,2,3,3,1,1,1,0,2,1,3,4,"980","<br><br><br><br><table><tr><td><img src=static/images/oddball_up.png></td><td><img src=static/images/oddball_down.png></td><td><img src=static/images/oddball_down.png></td></tr></table>","87","1","","","","","","","","","","","","","","","","","",""
"","html-keyboard-response",9,208621,"0.0-2.0-1.0",74,18,FALSE,1665691244889,750,"q","q","Only if I get the answer right","You win money","A fixed time limit",5,"female","taking a break between the rounds ","no",1,0,0,0,0,1,0,0,0,0,0,0,0,0,0,0,0,0,0,0,0,1,3,0,0,1,0,1,0,0,1,3,2,0,2,3,3,0,2,0,2,3,3,0,0,0,0,3,2,1,0,1,2,3,3,1,1,1,0,2,1,3,4,"null","<div style=""font-size:75px;""><b>Incorrect</b></div><br><br><div font-size:50px;"">The left shape was the odd one out, so you needed to press Q!</div>","null","","","","","","","","","","","","","","","","","","",""
"","html-keyboard-response",10,209649,"0.0-2.0-2.0",74,18,FALSE,1665691244889,750,"q","q","Only if I get the answer right","You win money","A fixed time limit",5,"female","taking a break between the rounds ","no",1,0,0,0,0,1,0,0,0,0,0,0,0,0,0,0,0,0,0,0,0,1,3,0,0,1,0,1,0,0,1,3,2,0,2,3,3,0,2,0,2,3,3,0,0,0,0,3,2,1,0,1,2,3,3,1,1,1,0,2,1,3,4,"980","","w","","true","practice","0","down","up","0","q","0","0","1665691455721","","","","","","","",""
"","html-keyboard-response",11,210795,"0.0-2.1-0.1",74,18,FALSE,1665691244889,750,"q","q","Only if I get the answer right","You win money","A fixed time limit",5,"female","taking a break between the rounds ","no",1,0,0,0,0,1,0,0,0,0,0,0,0,0,0,0,0,0,0,0,0,1,3,0,0,1,0,1,0,0,1,3,2,0,2,3,3,0,2,0,2,3,3,0,0,0,0,3,2,1,0,1,2,3,3,1,1,1,0,2,1,3,4,"1145.4000000059605","<br><br><br><br><table><tr><td><img src=static/images/oddball_down.png></td><td><img src=static/images/oddball_up.png></td><td><img src=static/images/oddball_down.png></td></tr></table>","87","1","","","","","","","","","","","","","","","","","",""
"","html-keyboard-response",12,213307,"0.0-2.1-1.1",74,18,FALSE,1665691244889,750,"q","q","Only if I get the answer right","You win money","A fixed time limit",5,"female","taking a break between the rounds ","no",1,0,0,0,0,1,0,0,0,0,0,0,0,0,0,0,0,0,0,0,0,1,3,0,0,1,0,1,0,0,1,3,2,0,2,3,3,0,2,0,2,3,3,0,0,0,0,3,2,1,0,1,2,3,3,1,1,1,0,2,1,3,4,"null","<div style=""font-size:75px;""><b>Correct</b></div>","null","","","","","","","","","","","","","","","","","","",""
"","html-keyboard-response",13,214311,"0.0-2.1-2.1",74,18,FALSE,1665691244889,750,"q","q","Only if I get the answer right","You win money","A fixed time limit",5,"female","taking a break between the rounds ","no",1,0,0,0,0,1,0,0,0,0,0,0,0,0,0,0,0,0,0,0,0,1,3,0,0,1,0,1,0,0,1,3,2,0,2,3,3,0,2,0,2,3,3,0,0,0,0,3,2,1,0,1,2,3,3,1,1,1,0,2,1,3,4,"1145.4000000059605","","w","","true","practice","1","down","up","1","w","1","0","1665691460384","","","","","","","",""
"","html-keyboard-response",14,214927,"0.0-2.2-0.2",74,18,FALSE,1665691244889,750,"q","q","Only if I get the answer right","You win money","A fixed time limit",5,"female","taking a break between the rounds ","no",1,0,0,0,0,1,0,0,0,0,0,0,0,0,0,0,0,0,0,0,0,1,3,0,0,1,0,1,0,0,1,3,2,0,2,3,3,0,2,0,2,3,3,0,0,0,0,3,2,1,0,1,2,3,3,1,1,1,0,2,1,3,4,"615.1999999955297","<br><br><br><br><table><tr><td><img src=static/images/oddball_down.png></td><td><img src=static/images/oddball_down.png></td><td><img src=static/images/oddball_up.png></td></tr></table>","69","1","","","","","","","","","","","","","","","","","",""
"","html-keyboard-response",15,217432,"0.0-2.2-1.2",74,18,FALSE,1665691244889,750,"q","q","Only if I get the answer right","You win money","A fixed time limit",5,"female","taking a break between the rounds ","no",1,0,0,0,0,1,0,0,0,0,0,0,0,0,0,0,0,0,0,0,0,1,3,0,0,1,0,1,0,0,1,3,2,0,2,3,3,0,2,0,2,3,3,0,0,0,0,3,2,1,0,1,2,3,3,1,1,1,0,2,1,3,4,"null","<div style=""font-size:75px;""><b>Correct</b></div>","null","","","","","","","","","","","","","","","","","","",""
"","html-keyboard-response",16,218436,"0.0-2.2-2.2",74,18,FALSE,1665691244889,750,"q","q","Only if I get the answer right","You win money","A fixed time limit",5,"female","taking a break between the rounds ","no",1,0,0,0,0,1,0,0,0,0,0,0,0,0,0,0,0,0,0,0,0,1,3,0,0,1,0,1,0,0,1,3,2,0,2,3,3,0,2,0,2,3,3,0,0,0,0,3,2,1,0,1,2,3,3,1,1,1,0,2,1,3,4,"615.1999999955297","","e","","true","practice","2","down","up","2","e","1","0","1665691464508","","","","","","","",""
"","html-keyboard-response",17,218947,"0.0-2.3-0.3",74,18,FALSE,1665691244889,750,"q","q","Only if I get the answer right","You win money","A fixed time limit",5,"female","taking a break between the rounds ","no",1,0,0,0,0,1,0,0,0,0,0,0,0,0,0,0,0,0,0,0,0,1,3,0,0,1,0,1,0,0,1,3,2,0,2,3,3,0,2,0,2,3,3,0,0,0,0,3,2,1,0,1,2,3,3,1,1,1,0,2,1,3,4,"511.09999999403954","<br><br><br><br><table><tr><td><img src=static/images/oddball_up.png></td><td><img src=static/images/oddball_down.png></td><td><img src=static/images/oddball_up.png></td></tr></table>","87","1","","","","","","","","","","","","","","","","","",""
"","html-keyboard-response",18,221454,"0.0-2.3-1.3",74,18,FALSE,1665691244889,750,"q","q","Only if I get the answer right","You win money","A fixed time limit",5,"female","taking a break between the rounds ","no",1,0,0,0,0,1,0,0,0,0,0,0,0,0,0,0,0,0,0,0,0,1,3,0,0,1,0,1,0,0,1,3,2,0,2,3,3,0,2,0,2,3,3,0,0,0,0,3,2,1,0,1,2,3,3,1,1,1,0,2,1,3,4,"null","<div style=""font-size:75px;""><b>Correct</b></div>","null","","","","","","","","","","","","","","","","","","",""
"","html-keyboard-response",19,222474,"0.0-2.3-2.3",74,18,FALSE,1665691244889,750,"q","q","Only if I get the answer right","You win money","A fixed time limit",5,"female","taking a break between the rounds ","no",1,0,0,0,0,1,0,0,0,0,0,0,0,0,0,0,0,0,0,0,0,1,3,0,0,1,0,1,0,0,1,3,2,0,2,3,3,0,2,0,2,3,3,0,0,0,0,3,2,1,0,1,2,3,3,1,1,1,0,2,1,3,4,"511.09999999403954","","w","","true","practice","3","up","down","1","w","1","0","1665691468546","","","","","","","",""
"","html-keyboard-response",20,222947,"0.0-2.4-0.4",74,18,FALSE,1665691244889,750,"q","q","Only if I get the answer right","You win money","A fixed time limit",5,"female","taking a break between the rounds ","no",1,0,0,0,0,1,0,0,0,0,0,0,0,0,0,0,0,0,0,0,0,1,3,0,0,1,0,1,0,0,1,3,2,0,2,3,3,0,2,0,2,3,3,0,0,0,0,3,2,1,0,1,2,3,3,1,1,1,0,2,1,3,4,"473.20000000298023","<br><br><br><br><table><tr><td><img src=static/images/oddball_down.png></td><td><img src=static/images/oddball_up.png></td><td><img src=static/images/oddball_down.png></td></tr></table>","87","1","","","","","","","","","","","","","","","","","",""
"","html-keyboard-response",21,225463,"0.0-2.4-1.4",74,18,FALSE,1665691244889,750,"q","q","Only if I get the answer right","You win money","A fixed time limit",5,"female","taking a break between the rounds ","no",1,0,0,0,0,1,0,0,0,0,0,0,0,0,0,0,0,0,0,0,0,1,3,0,0,1,0,1,0,0,1,3,2,0,2,3,3,0,2,0,2,3,3,0,0,0,0,3,2,1,0,1,2,3,3,1,1,1,0,2,1,3,4,"null","<div style=""font-size:75px;""><b>Correct</b></div>","null","","","","","","","","","","","","","","","","","","",""
"","html-keyboard-response",22,226467,"0.0-2.4-2.4",74,18,FALSE,1665691244889,750,"q","q","Only if I get the answer right","You win money","A fixed time limit",5,"female","taking a break between the rounds ","no",1,0,0,0,0,1,0,0,0,0,0,0,0,0,0,0,0,0,0,0,0,1,3,0,0,1,0,1,0,0,1,3,2,0,2,3,3,0,2,0,2,3,3,0,0,0,0,3,2,1,0,1,2,3,3,1,1,1,0,2,1,3,4,"473.20000000298023","","w","","true","practice","4","down","up","1","w","1","0","1665691472539","","","","","","","",""
"","html-keyboard-response",23,227003,"0.0-2.5-0.5",74,18,FALSE,1665691244889,750,"q","q","Only if I get the answer right","You win money","A fixed time limit",5,"female","taking a break between the rounds ","no",1,0,0,0,0,1,0,0,0,0,0,0,0,0,0,0,0,0,0,0,0,1,3,0,0,1,0,1,0,0,1,3,2,0,2,3,3,0,2,0,2,3,3,0,0,0,0,3,2,1,0,1,2,3,3,1,1,1,0,2,1,3,4,"535.3999999985099","<br><br><br><br><table><tr><td><img src=static/images/oddball_up.png></td><td><img src=static/images/oddball_down.png></td><td><img src=static/images/oddball_down.png></td></tr></table>","87","1","","","","","","","","","","","","","","","","","",""
"","html-keyboard-response",24,229506,"0.0-2.5-1.5",74,18,FALSE,1665691244889,750,"q","q","Only if I get the answer right","You win money","A fixed time limit",5,"female","taking a break between the rounds ","no",1,0,0,0,0,1,0,0,0,0,0,0,0,0,0,0,0,0,0,0,0,1,3,0,0,1,0,1,0,0,1,3,2,0,2,3,3,0,2,0,2,3,3,0,0,0,0,3,2,1,0,1,2,3,3,1,1,1,0,2,1,3,4,"null","<div style=""font-size:75px;""><b>Incorrect</b></div><br><br><div font-size:50px;"">The left shape was the odd one out, so you needed to press Q!</div>","null","","","","","","","","","","","","","","","","","","",""
"","html-keyboard-response",25,230559,"0.0-2.5-2.5",74,18,FALSE,1665691244889,750,"q","q","Only if I get the answer right","You win money","A fixed time limit",5,"female","taking a break between the rounds ","no",1,0,0,0,0,1,0,0,0,0,0,0,0,0,0,0,0,0,0,0,0,1,3,0,0,1,0,1,0,0,1,3,2,0,2,3,3,0,2,0,2,3,3,0,0,0,0,3,2,1,0,1,2,3,3,1,1,1,0,2,1,3,4,"535.3999999985099","","w","","true","practice","5","down","up","0","q","0","0","1665691476631","","","","","","","",""
"","html-keyboard-response",26,232971,"0.0-2.6-0.6",74,18,FALSE,1665691244889,750,"q","q","Only if I get the answer right","You win money","A fixed time limit",5,"female","taking a break between the rounds ","no",1,0,0,0,0,1,0,0,0,0,0,0,0,0,0,0,0,0,0,0,0,1,3,0,0,1,0,1,0,0,1,3,2,0,2,3,3,0,2,0,2,3,3,0,0,0,0,3,2,1,0,1,2,3,3,1,1,1,0,2,1,3,4,"2402.5","<br><br><br><br><table><tr><td><img src=static/images/oddball_up.png></td><td><img src=static/images/oddball_up.png></td><td><img src=static/images/oddball_down.png></td></tr></table>","69","2","","","","","","","","","","","","","","","","","",""
"","html-keyboard-response",27,235481,"0.0-2.6-1.6",74,18,FALSE,1665691244889,750,"q","q","Only if I get the answer right","You win money","A fixed time limit",5,"female","taking a break between the rounds ","no",1,0,0,0,0,1,0,0,0,0,0,0,0,0,0,0,0,0,0,0,0,1,3,0,0,1,0,1,0,0,1,3,2,0,2,3,3,0,2,0,2,3,3,0,0,0,0,3,2,1,0,1,2,3,3,1,1,1,0,2,1,3,4,"null","<div style=""font-size:75px;""><b>Correct</b></div>","null","","","","","","","","","","","","","","","","","","",""
"","html-keyboard-response",28,236485,"0.0-2.6-2.6",74,18,FALSE,1665691244889,750,"q","q","Only if I get the answer right","You win money","A fixed time limit",5,"female","taking a break between the rounds ","no",1,0,0,0,0,1,0,0,0,0,0,0,0,0,0,0,0,0,0,0,0,1,3,0,0,1,0,1,0,0,1,3,2,0,2,3,3,0,2,0,2,3,3,0,0,0,0,3,2,1,0,1,2,3,3,1,1,1,0,2,1,3,4,"2402.5","","e","","true","practice","6","up","down","2","e","1","0","1665691482557","","","","","","","",""
"","html-keyboard-response",29,237051,"0.0-2.7-0.7",74,18,FALSE,1665691244889,750,"q","q","Only if I get the answer right","You win money","A fixed time limit",5,"female","taking a break between the rounds ","no",1,0,0,0,0,1,0,0,0,0,0,0,0,0,0,0,0,0,0,0,0,1,3,0,0,1,0,1,0,0,1,3,2,0,2,3,3,0,2,0,2,3,3,0,0,0,0,3,2,1,0,1,2,3,3,1,1,1,0,2,1,3,4,"565.4000000059605","<br><br><br><br><table><tr><td><img src=static/images/oddball_up.png></td><td><img src=static/images/oddball_down.png></td><td><img src=static/images/oddball_up.png></td></tr></table>","87","1","","","","","","","","","","","","","","","","","",""
"","html-keyboard-response",30,239557,"0.0-2.7-1.7",74,18,FALSE,1665691244889,750,"q","q","Only if I get the answer right","You win money","A fixed time limit",5,"female","taking a break between the rounds ","no",1,0,0,0,0,1,0,0,0,0,0,0,0,0,0,0,0,0,0,0,0,1,3,0,0,1,0,1,0,0,1,3,2,0,2,3,3,0,2,0,2,3,3,0,0,0,0,3,2,1,0,1,2,3,3,1,1,1,0,2,1,3,4,"null","<div style=""font-size:75px;""><b>Correct</b></div>","null","","","","","","","","","","","","","","","","","","",""
"","html-keyboard-response",31,240561,"0.0-2.7-2.7",74,18,FALSE,1665691244889,750,"q","q","Only if I get the answer right","You win money","A fixed time limit",5,"female","taking a break between the rounds ","no",1,0,0,0,0,1,0,0,0,0,0,0,0,0,0,0,0,0,0,0,0,1,3,0,0,1,0,1,0,0,1,3,2,0,2,3,3,0,2,0,2,3,3,0,0,0,0,3,2,1,0,1,2,3,3,1,1,1,0,2,1,3,4,"565.4000000059605","","w","","true","practice","7","up","down","1","w","1","0","1665691486633","","","","","","","",""
"","html-keyboard-response",32,241131,"0.0-2.8-0.8",74,18,FALSE,1665691244889,750,"q","q","Only if I get the answer right","You win money","A fixed time limit",5,"female","taking a break between the rounds ","no",1,0,0,0,0,1,0,0,0,0,0,0,0,0,0,0,0,0,0,0,0,1,3,0,0,1,0,1,0,0,1,3,2,0,2,3,3,0,2,0,2,3,3,0,0,0,0,3,2,1,0,1,2,3,3,1,1,1,0,2,1,3,4,"569.7000000029802","<br><br><br><br><table><tr><td><img src=static/images/oddball_down.png></td><td><img src=static/images/oddball_down.png></td><td><img src=static/images/oddball_up.png></td></tr></table>","69","1","","","","","","","","","","","","","","","","","",""
"","html-keyboard-response",33,243646,"0.0-2.8-1.8",74,18,FALSE,1665691244889,750,"q","q","Only if I get the answer right","You win money","A fixed time limit",5,"female","taking a break between the rounds ","no",1,0,0,0,0,1,0,0,0,0,0,0,0,0,0,0,0,0,0,0,0,1,3,0,0,1,0,1,0,0,1,3,2,0,2,3,3,0,2,0,2,3,3,0,0,0,0,3,2,1,0,1,2,3,3,1,1,1,0,2,1,3,4,"null","<div style=""font-size:75px;""><b>Correct</b></div>","null","","","","","","","","","","","","","","","","","","",""
"","html-keyboard-response",34,244652,"0.0-2.8-2.8",74,18,FALSE,1665691244889,750,"q","q","Only if I get the answer right","You win money","A fixed time limit",5,"female","taking a break between the rounds ","no",1,0,0,0,0,1,0,0,0,0,0,0,0,0,0,0,0,0,0,0,0,1,3,0,0,1,0,1,0,0,1,3,2,0,2,3,3,0,2,0,2,3,3,0,0,0,0,3,2,1,0,1,2,3,3,1,1,1,0,2,1,3,4,"569.7000000029802","","e","","true","practice","8","down","up","2","e","1","0","1665691490724","","","","","","","",""
"","html-keyboard-response",35,245107,"0.0-2.9-0.9",74,18,FALSE,1665691244889,750,"q","q","Only if I get the answer right","You win money","A fixed time limit",5,"female","taking a break between the rounds ","no",1,0,0,0,0,1,0,0,0,0,0,0,0,0,0,0,0,0,0,0,0,1,3,0,0,1,0,1,0,0,1,3,2,0,2,3,3,0,2,0,2,3,3,0,0,0,0,3,2,1,0,1,2,3,3,1,1,1,0,2,1,3,4,"453.6000000014901","<br><br><br><br><table><tr><td><img src=static/images/oddball_down.png></td><td><img src=static/images/oddball_up.png></td><td><img src=static/images/oddball_down.png></td></tr></table>","87","1","","","","","","","","","","","","","","","","","",""
"","html-keyboard-response",36,247620,"0.0-2.9-1.9",74,18,FALSE,1665691244889,750,"q","q","Only if I get the answer right","You win money","A fixed time limit",5,"female","taking a break between the rounds ","no",1,0,0,0,0,1,0,0,0,0,0,0,0,0,0,0,0,0,0,0,0,1,3,0,0,1,0,1,0,0,1,3,2,0,2,3,3,0,2,0,2,3,3,0,0,0,0,3,2,1,0,1,2,3,3,1,1,1,0,2,1,3,4,"null","<div style=""font-size:75px;""><b>Correct</b></div>","null","","","","","","","","","","","","","","","","","","",""
"","html-keyboard-response",37,248625,"0.0-2.9-2.9",74,18,FALSE,1665691244889,750,"q","q","Only if I get the answer right","You win money","A fixed time limit",5,"female","taking a break between the rounds ","no",1,0,0,0,0,1,0,0,0,0,0,0,0,0,0,0,0,0,0,0,0,1,3,0,0,1,0,1,0,0,1,3,2,0,2,3,3,0,2,0,2,3,3,0,0,0,0,3,2,1,0,1,2,3,3,1,1,1,0,2,1,3,4,"453.6000000014901","","w","","true","practice","9","down","up","1","w","1","0","1665691494697","","","","","","","",""
"","html-keyboard-response",38,249379,"0.0-2.10-0.10",74,18,FALSE,1665691244889,750,"q","q","Only if I get the answer right","You win money","A fixed time limit",5,"female","taking a break between the rounds ","no",1,0,0,0,0,1,0,0,0,0,0,0,0,0,0,0,0,0,0,0,0,1,3,0,0,1,0,1,0,0,1,3,2,0,2,3,3,0,2,0,2,3,3,0,0,0,0,3,2,1,0,1,2,3,3,1,1,1,0,2,1,3,4,"753.4000000059605","<br><br><br><br><table><tr><td><img src=static/images/oddball_up.png></td><td><img src=static/images/oddball_down.png></td><td><img src=static/images/oddball_down.png></td></tr></table>","81","1","","","","","","","","","","","","","","","","","",""
"","html-keyboard-response",39,251894,"0.0-2.10-1.10",74,18,FALSE,1665691244889,750,"q","q","Only if I get the answer right","You win money","A fixed time limit",5,"female","taking a break between the rounds ","no",1,0,0,0,0,1,0,0,0,0,0,0,0,0,0,0,0,0,0,0,0,1,3,0,0,1,0,1,0,0,1,3,2,0,2,3,3,0,2,0,2,3,3,0,0,0,0,3,2,1,0,1,2,3,3,1,1,1,0,2,1,3,4,"null","<div style=""font-size:75px;""><b>Correct</b></div>","null","","","","","","","","","","","","","","","","","","",""
"","html-keyboard-response",40,252899,"0.0-2.10-2.10",74,18,FALSE,1665691244889,750,"q","q","Only if I get the answer right","You win money","A fixed time limit",5,"female","taking a break between the rounds ","no",1,0,0,0,0,1,0,0,0,0,0,0,0,0,0,0,0,0,0,0,0,1,3,0,0,1,0,1,0,0,1,3,2,0,2,3,3,0,2,0,2,3,3,0,0,0,0,3,2,1,0,1,2,3,3,1,1,1,0,2,1,3,4,"753.4000000059605","","q","","true","practice","10","down","up","0","q","1","0","1665691498971","","","","","","","",""
"","html-keyboard-response",41,253395,"0.0-2.11-0.11",74,18,FALSE,1665691244889,750,"q","q","Only if I get the answer right","You win money","A fixed time limit",5,"female","taking a break between the rounds ","no",1,0,0,0,0,1,0,0,0,0,0,0,0,0,0,0,0,0,0,0,0,1,3,0,0,1,0,1,0,0,1,3,2,0,2,3,3,0,2,0,2,3,3,0,0,0,0,3,2,1,0,1,2,3,3,1,1,1,0,2,1,3,4,"495.30000000447035","<br><br><br><br><table><tr><td><img src=static/images/oddball_up.png></td><td><img src=static/images/oddball_down.png></td><td><img src=static/images/oddball_down.png></td></tr></table>","81","1","","","","","","","","","","","","","","","","","",""
"","html-keyboard-response",42,255903,"0.0-2.11-1.11",74,18,FALSE,1665691244889,750,"q","q","Only if I get the answer right","You win money","A fixed time limit",5,"female","taking a break between the rounds ","no",1,0,0,0,0,1,0,0,0,0,0,0,0,0,0,0,0,0,0,0,0,1,3,0,0,1,0,1,0,0,1,3,2,0,2,3,3,0,2,0,2,3,3,0,0,0,0,3,2,1,0,1,2,3,3,1,1,1,0,2,1,3,4,"null","<div style=""font-size:75px;""><b>Correct</b></div>","null","","","","","","","","","","","","","","","","","","",""
"","html-keyboard-response",43,256907,"0.0-2.11-2.11",74,18,FALSE,1665691244889,750,"q","q","Only if I get the answer right","You win money","A fixed time limit",5,"female","taking a break between the rounds ","no",1,0,0,0,0,1,0,0,0,0,0,0,0,0,0,0,0,0,0,0,0,1,3,0,0,1,0,1,0,0,1,3,2,0,2,3,3,0,2,0,2,3,3,0,0,0,0,3,2,1,0,1,2,3,3,1,1,1,0,2,1,3,4,"495.30000000447035","","q","","true","practice","11","down","up","0","q","1","0","1665691502979","","","","","","","",""
"","html-keyboard-response",44,257403,"0.0-2.12-0.12",74,18,FALSE,1665691244889,750,"q","q","Only if I get the answer right","You win money","A fixed time limit",5,"female","taking a break between the rounds ","no",1,0,0,0,0,1,0,0,0,0,0,0,0,0,0,0,0,0,0,0,0,1,3,0,0,1,0,1,0,0,1,3,2,0,2,3,3,0,2,0,2,3,3,0,0,0,0,3,2,1,0,1,2,3,3,1,1,1,0,2,1,3,4,"495.79999999701977","<br><br><br><br><table><tr><td><img src=static/images/oddball_up.png></td><td><img src=static/images/oddball_down.png></td><td><img src=static/images/oddball_down.png></td></tr></table>","81","1","","","","","","","","","","","","","","","","","",""
"","html-keyboard-response",45,259910,"0.0-2.12-1.12",74,18,FALSE,1665691244889,750,"q","q","Only if I get the answer right","You win money","A fixed time limit",5,"female","taking a break between the rounds ","no",1,0,0,0,0,1,0,0,0,0,0,0,0,0,0,0,0,0,0,0,0,1,3,0,0,1,0,1,0,0,1,3,2,0,2,3,3,0,2,0,2,3,3,0,0,0,0,3,2,1,0,1,2,3,3,1,1,1,0,2,1,3,4,"null","<div style=""font-size:75px;""><b>Correct</b></div>","null","","","","","","","","","","","","","","","","","","",""
"","html-keyboard-response",46,260914,"0.0-2.12-2.12",74,18,FALSE,1665691244889,750,"q","q","Only if I get the answer right","You win money","A fixed time limit",5,"female","taking a break between the rounds ","no",1,0,0,0,0,1,0,0,0,0,0,0,0,0,0,0,0,0,0,0,0,1,3,0,0,1,0,1,0,0,1,3,2,0,2,3,3,0,2,0,2,3,3,0,0,0,0,3,2,1,0,1,2,3,3,1,1,1,0,2,1,3,4,"495.79999999701977","","q","","true","practice","12","down","up","0","q","1","0","1665691506986","","","","","","","",""
"","html-keyboard-response",47,261555,"0.0-2.13-0.13",74,18,FALSE,1665691244889,750,"q","q","Only if I get the answer right","You win money","A fixed time limit",5,"female","taking a break between the rounds ","no",1,0,0,0,0,1,0,0,0,0,0,0,0,0,0,0,0,0,0,0,0,1,3,0,0,1,0,1,0,0,1,3,2,0,2,3,3,0,2,0,2,3,3,0,0,0,0,3,2,1,0,1,2,3,3,1,1,1,0,2,1,3,4,"640.2000000029802","<br><br><br><br><table><tr><td><img src=static/images/oddball_up.png></td><td><img src=static/images/oddball_up.png></td><td><img src=static/images/oddball_down.png></td></tr></table>","69","1","","","","","","","","","","","","","","","","","",""
"","html-keyboard-response",48,264103,"0.0-2.13-1.13",74,18,FALSE,1665691244889,750,"q","q","Only if I get the answer right","You win money","A fixed time limit",5,"female","taking a break between the rounds ","no",1,0,0,0,0,1,0,0,0,0,0,0,0,0,0,0,0,0,0,0,0,1,3,0,0,1,0,1,0,0,1,3,2,0,2,3,3,0,2,0,2,3,3,0,0,0,0,3,2,1,0,1,2,3,3,1,1,1,0,2,1,3,4,"null","<div style=""font-size:75px;""><b>Correct</b></div>","null","","","","","","","","","","","","","","","","","","",""
"","html-keyboard-response",49,265107,"0.0-2.13-2.13",74,18,FALSE,1665691244889,750,"q","q","Only if I get the answer right","You win money","A fixed time limit",5,"female","taking a break between the rounds ","no",1,0,0,0,0,1,0,0,0,0,0,0,0,0,0,0,0,0,0,0,0,1,3,0,0,1,0,1,0,0,1,3,2,0,2,3,3,0,2,0,2,3,3,0,0,0,0,3,2,1,0,1,2,3,3,1,1,1,0,2,1,3,4,"640.2000000029802","","e","","true","practice","13","up","down","2","e","1","0","1665691511179","","","","","","","",""
"","html-keyboard-response",50,265635,"0.0-2.14-0.14",74,18,FALSE,1665691244889,750,"q","q","Only if I get the answer right","You win money","A fixed time limit",5,"female","taking a break between the rounds ","no",1,0,0,0,0,1,0,0,0,0,0,0,0,0,0,0,0,0,0,0,0,1,3,0,0,1,0,1,0,0,1,3,2,0,2,3,3,0,2,0,2,3,3,0,0,0,0,3,2,1,0,1,2,3,3,1,1,1,0,2,1,3,4,"527.8999999985099","<br><br><br><br><table><tr><td><img src=static/images/oddball_down.png></td><td><img src=static/images/oddball_up.png></td><td><img src=static/images/oddball_up.png></td></tr></table>","81","1","","","","","","","","","","","","","","","","","",""
"","html-keyboard-response",51,268141,"0.0-2.14-1.14",74,18,FALSE,1665691244889,750,"q","q","Only if I get the answer right","You win money","A fixed time limit",5,"female","taking a break between the rounds ","no",1,0,0,0,0,1,0,0,0,0,0,0,0,0,0,0,0,0,0,0,0,1,3,0,0,1,0,1,0,0,1,3,2,0,2,3,3,0,2,0,2,3,3,0,0,0,0,3,2,1,0,1,2,3,3,1,1,1,0,2,1,3,4,"null","<div style=""font-size:75px;""><b>Correct</b></div>","null","","","","","","","","","","","","","","","","","","",""
"","html-keyboard-response",52,269146,"0.0-2.14-2.14",74,18,FALSE,1665691244889,750,"q","q","Only if I get the answer right","You win money","A fixed time limit",5,"female","taking a break between the rounds ","no",1,0,0,0,0,1,0,0,0,0,0,0,0,0,0,0,0,0,0,0,0,1,3,0,0,1,0,1,0,0,1,3,2,0,2,3,3,0,2,0,2,3,3,0,0,0,0,3,2,1,0,1,2,3,3,1,1,1,0,2,1,3,4,"527.8999999985099","","q","","true","practice","14","up","down","0","q","1","0","1665691515218","","","","","","","",""
"","html-keyboard-response",53,269715,"0.0-2.15-0.15",74,18,FALSE,1665691244889,750,"q","q","Only if I get the answer right","You win money","A fixed time limit",5,"female","taking a break between the rounds ","no",1,0,0,0,0,1,0,0,0,0,0,0,0,0,0,0,0,0,0,0,0,1,3,0,0,1,0,1,0,0,1,3,2,0,2,3,3,0,2,0,2,3,3,0,0,0,0,3,2,1,0,1,2,3,3,1,1,1,0,2,1,3,4,"567.9000000059605","<br><br><br><br><table><tr><td><img src=static/images/oddball_up.png></td><td><img src=static/images/oddball_down.png></td><td><img src=static/images/oddball_down.png></td></tr></table>","81","1","","","","","","","","","","","","","","","","","",""
"","html-keyboard-response",54,272217,"0.0-2.15-1.15",74,18,FALSE,1665691244889,750,"q","q","Only if I get the answer right","You win money","A fixed time limit",5,"female","taking a break between the rounds ","no",1,0,0,0,0,1,0,0,0,0,0,0,0,0,0,0,0,0,0,0,0,1,3,0,0,1,0,1,0,0,1,3,2,0,2,3,3,0,2,0,2,3,3,0,0,0,0,3,2,1,0,1,2,3,3,1,1,1,0,2,1,3,4,"null","<div style=""font-size:75px;""><b>Correct</b></div>","null","","","","","","","","","","","","","","","","","","",""
"","html-keyboard-response",55,273223,"0.0-2.15-2.15",74,18,FALSE,1665691244889,750,"q","q","Only if I get the answer right","You win money","A fixed time limit",5,"female","taking a break between the rounds ","no",1,0,0,0,0,1,0,0,0,0,0,0,0,0,0,0,0,0,0,0,0,1,3,0,0,1,0,1,0,0,1,3,2,0,2,3,3,0,2,0,2,3,3,0,0,0,0,3,2,1,0,1,2,3,3,1,1,1,0,2,1,3,4,"567.9000000059605","","q","","true","practice","15","down","up","0","q","1","0","1665691519295","","","","","","","",""
"","html-keyboard-response",56,273643,"0.0-2.16-0.16",74,18,FALSE,1665691244889,750,"q","q","Only if I get the answer right","You win money","A fixed time limit",5,"female","taking a break between the rounds ","no",1,0,0,0,0,1,0,0,0,0,0,0,0,0,0,0,0,0,0,0,0,1,3,0,0,1,0,1,0,0,1,3,2,0,2,3,3,0,2,0,2,3,3,0,0,0,0,3,2,1,0,1,2,3,3,1,1,1,0,2,1,3,4,"419.70000000298023","<br><br><br><br><table><tr><td><img src=static/images/oddball_up.png></td><td><img src=static/images/oddball_down.png></td><td><img src=static/images/oddball_down.png></td></tr></table>","81","1","","","","","","","","","","","","","","","","","",""
"","html-keyboard-response",57,276157,"0.0-2.16-1.16",74,18,FALSE,1665691244889,750,"q","q","Only if I get the answer right","You win money","A fixed time limit",5,"female","taking a break between the rounds ","no",1,0,0,0,0,1,0,0,0,0,0,0,0,0,0,0,0,0,0,0,0,1,3,0,0,1,0,1,0,0,1,3,2,0,2,3,3,0,2,0,2,3,3,0,0,0,0,3,2,1,0,1,2,3,3,1,1,1,0,2,1,3,4,"null","<div style=""font-size:75px;""><b>Correct</b></div>","null","","","","","","","","","","","","","","","","","","",""
"","html-keyboard-response",58,277162,"0.0-2.16-2.16",74,18,FALSE,1665691244889,750,"q","q","Only if I get the answer right","You win money","A fixed time limit",5,"female","taking a break between the rounds ","no",1,0,0,0,0,1,0,0,0,0,0,0,0,0,0,0,0,0,0,0,0,1,3,0,0,1,0,1,0,0,1,3,2,0,2,3,3,0,2,0,2,3,3,0,0,0,0,3,2,1,0,1,2,3,3,1,1,1,0,2,1,3,4,"419.70000000298023","","q","","true","practice","16","down","up","0","q","1","0","1665691523234","","","","","","","",""
"","html-keyboard-response",59,277634,"0.0-2.17-0.17",74,18,FALSE,1665691244889,750,"q","q","Only if I get the answer right","You win money","A fixed time limit",5,"female","taking a break between the rounds ","no",1,0,0,0,0,1,0,0,0,0,0,0,0,0,0,0,0,0,0,0,0,1,3,0,0,1,0,1,0,0,1,3,2,0,2,3,3,0,2,0,2,3,3,0,0,0,0,3,2,1,0,1,2,3,3,1,1,1,0,2,1,3,4,"473","<br><br><br><br><table><tr><td><img src=static/images/oddball_up.png></td><td><img src=static/images/oddball_down.png></td><td><img src=static/images/oddball_down.png></td></tr></table>","81","1","","","","","","","","","","","","","","","","","",""
"","html-keyboard-response",60,280146,"0.0-2.17-1.17",74,18,FALSE,1665691244889,750,"q","q","Only if I get the answer right","You win money","A fixed time limit",5,"female","taking a break between the rounds ","no",1,0,0,0,0,1,0,0,0,0,0,0,0,0,0,0,0,0,0,0,0,1,3,0,0,1,0,1,0,0,1,3,2,0,2,3,3,0,2,0,2,3,3,0,0,0,0,3,2,1,0,1,2,3,3,1,1,1,0,2,1,3,4,"null","<div style=""font-size:75px;""><b>Correct</b></div>","null","","","","","","","","","","","","","","","","","","",""
"","html-keyboard-response",61,281151,"0.0-2.17-2.17",74,18,FALSE,1665691244889,750,"q","q","Only if I get the answer right","You win money","A fixed time limit",5,"female","taking a break between the rounds ","no",1,0,0,0,0,1,0,0,0,0,0,0,0,0,0,0,0,0,0,0,0,1,3,0,0,1,0,1,0,0,1,3,2,0,2,3,3,0,2,0,2,3,3,0,0,0,0,3,2,1,0,1,2,3,3,1,1,1,0,2,1,3,4,"473","","q","","true","practice","17","down","up","0","q","1","0","1665691527223","","","","","","","",""
"","html-keyboard-response",62,281778,"0.0-2.18-0.18",74,18,FALSE,1665691244889,750,"q","q","Only if I get the answer right","You win money","A fixed time limit",5,"female","taking a break between the rounds ","no",1,0,0,0,0,1,0,0,0,0,0,0,0,0,0,0,0,0,0,0,0,1,3,0,0,1,0,1,0,0,1,3,2,0,2,3,3,0,2,0,2,3,3,0,0,0,0,3,2,1,0,1,2,3,3,1,1,1,0,2,1,3,4,"626.2999999970198","<br><br><br><br><table><tr><td><img src=static/images/oddball_up.png></td><td><img src=static/images/oddball_up.png></td><td><img src=static/images/oddball_down.png></td></tr></table>","69","1","","","","","","","","","","","","","","","","","",""
"","html-keyboard-response",63,284287,"0.0-2.18-1.18",74,18,FALSE,1665691244889,750,"q","q","Only if I get the answer right","You win money","A fixed time limit",5,"female","taking a break between the rounds ","no",1,0,0,0,0,1,0,0,0,0,0,0,0,0,0,0,0,0,0,0,0,1,3,0,0,1,0,1,0,0,1,3,2,0,2,3,3,0,2,0,2,3,3,0,0,0,0,3,2,1,0,1,2,3,3,1,1,1,0,2,1,3,4,"null","<div style=""font-size:75px;""><b>Correct</b></div>","null","","","","","","","","","","","","","","","","","","",""
"","html-keyboard-response",64,285291,"0.0-2.18-2.18",74,18,FALSE,1665691244889,750,"q","q","Only if I get the answer right","You win money","A fixed time limit",5,"female","taking a break between the rounds ","no",1,0,0,0,0,1,0,0,0,0,0,0,0,0,0,0,0,0,0,0,0,1,3,0,0,1,0,1,0,0,1,3,2,0,2,3,3,0,2,0,2,3,3,0,0,0,0,3,2,1,0,1,2,3,3,1,1,1,0,2,1,3,4,"626.2999999970198","","e","","true","practice","18","up","down","2","e","1","0","1665691531363","","","","","","","",""
"","html-keyboard-response",65,285802,"0.0-2.19-0.19",74,18,FALSE,1665691244889,750,"q","q","Only if I get the answer right","You win money","A fixed time limit",5,"female","taking a break between the rounds ","no",1,0,0,0,0,1,0,0,0,0,0,0,0,0,0,0,0,0,0,0,0,1,3,0,0,1,0,1,0,0,1,3,2,0,2,3,3,0,2,0,2,3,3,0,0,0,0,3,2,1,0,1,2,3,3,1,1,1,0,2,1,3,4,"509.3999999985099","<br><br><br><br><table><tr><td><img src=static/images/oddball_down.png></td><td><img src=static/images/oddball_up.png></td><td><img src=static/images/oddball_up.png></td></tr></table>","81","1","","","","","","","","","","","","","","","","","",""
"","html-keyboard-response",66,288312,"0.0-2.19-1.19",74,18,FALSE,1665691244889,750,"q","q","Only if I get the answer right","You win money","A fixed time limit",5,"female","taking a break between the rounds ","no",1,0,0,0,0,1,0,0,0,0,0,0,0,0,0,0,0,0,0,0,0,1,3,0,0,1,0,1,0,0,1,3,2,0,2,3,3,0,2,0,2,3,3,0,0,0,0,3,2,1,0,1,2,3,3,1,1,1,0,2,1,3,4,"null","<div style=""font-size:75px;""><b>Correct</b></div>","null","","","","","","","","","","","","","","","","","","",""
"","html-keyboard-response",67,289318,"0.0-2.19-2.19",74,18,FALSE,1665691244889,750,"q","q","Only if I get the answer right","You win money","A fixed time limit",5,"female","taking a break between the rounds ","no",1,0,0,0,0,1,0,0,0,0,0,0,0,0,0,0,0,0,0,0,0,1,3,0,0,1,0,1,0,0,1,3,2,0,2,3,3,0,2,0,2,3,3,0,0,0,0,3,2,1,0,1,2,3,3,1,1,1,0,2,1,3,4,"509.3999999985099","","q","","true","practice","19","up","down","0","q","1","0","1665691535390","","","","","","","",""
"","image-keyboard-response",68,294521,"0.0-3.0-0.0",74,18,FALSE,1665691244889,750,"q","q","Only if I get the answer right","You win money","A fixed time limit",5,"female","taking a break between the rounds ","no",1,0,0,0,0,1,0,0,0,0,0,0,0,0,0,0,0,0,0,0,0,1,3,0,0,1,0,1,0,0,1,3,2,0,2,3,3,0,2,0,2,3,3,0,0,0,0,3,2,1,0,1,2,3,3,1,1,1,0,2,1,3,4,"5202.89999999851","static/images/instructions/Slide8.png","39","","","","","","","","","","","","","","","","","","",""
"","image-keyboard-response",69,310393,"0.0-3.1-0.1",74,18,FALSE,1665691244889,750,"q","q","Only if I get the answer right","You win money","A fixed time limit",5,"female","taking a break between the rounds ","no",1,0,0,0,0,1,0,0,0,0,0,0,0,0,0,0,0,0,0,0,0,1,3,0,0,1,0,1,0,0,1,3,2,0,2,3,3,0,2,0,2,3,3,0,0,0,0,3,2,1,0,1,2,3,3,1,1,1,0,2,1,3,4,"15839.10000000149","static/images/instructions/Slide9.png","39","","","","","","","","","","","","","","","","","","",""
"","image-keyboard-response",70,319609,"0.0-3.2-0.2",74,18,FALSE,1665691244889,750,"q","q","Only if I get the answer right","You win money","A fixed time limit",5,"female","taking a break between the rounds ","no",1,0,0,0,0,1,0,0,0,0,0,0,0,0,0,0,0,0,0,0,0,1,3,0,0,1,0,1,0,0,1,3,2,0,2,3,3,0,2,0,2,3,3,0,0,0,0,3,2,1,0,1,2,3,3,1,1,1,0,2,1,3,4,"9215.39999999851","static/images/instructions/Slide10.png","39","","","","","","","","","","","","","","","","","","",""
"","image-keyboard-response",71,329105,"0.0-3.3-0.3",74,18,FALSE,1665691244889,750,"q","q","Only if I get the answer right","You win money","A fixed time limit",5,"female","taking a break between the rounds ","no",1,0,0,0,0,1,0,0,0,0,0,0,0,0,0,0,0,0,0,0,0,1,3,0,0,1,0,1,0,0,1,3,2,0,2,3,3,0,2,0,2,3,3,0,0,0,0,3,2,1,0,1,2,3,3,1,1,1,0,2,1,3,4,"9495.19999999553","static/images/instructions/Slide11.png","39","","","","","","","","","","","","","","","","","","",""
"","image-keyboard-response",72,332433,"0.0-3.4-0.4",74,18,FALSE,1665691244889,750,"q","q","Only if I get the answer right","You win money","A fixed time limit",5,"female","taking a break between the rounds ","no",1,0,0,0,0,1,0,0,0,0,0,0,0,0,0,0,0,0,0,0,0,1,3,0,0,1,0,1,0,0,1,3,2,0,2,3,3,0,2,0,2,3,3,0,0,0,0,3,2,1,0,1,2,3,3,1,1,1,0,2,1,3,4,"3327.39999999851","static/images/instructions/Slide12.png","39","","","","","","","","","","","","","","","","","","",""
"","image-keyboard-response",73,336057,"0.0-3.5-0.5",74,18,FALSE,1665691244889,750,"q","q","Only if I get the answer right","You win money","A fixed time limit",5,"female","taking a break between the rounds ","no",1,0,0,0,0,1,0,0,0,0,0,0,0,0,0,0,0,0,0,0,0,1,3,0,0,1,0,1,0,0,1,3,2,0,2,3,3,0,2,0,2,3,3,0,0,0,0,3,2,1,0,1,2,3,3,1,1,1,0,2,1,3,4,"3623.39999999851","static/images/instructions/Slide13.png","39","","","","","","","","","","","","","","","","","","",""
"","image-keyboard-response",74,346638,"0.0-3.6-0.6",74,18,FALSE,1665691244889,750,"q","q","Only if I get the answer right","You win money","A fixed time limit",5,"female","taking a break between the rounds ","no",1,0,0,0,0,1,0,0,0,0,0,0,0,0,0,0,0,0,0,0,0,1,3,0,0,1,0,1,0,0,1,3,2,0,2,3,3,0,2,0,2,3,3,0,0,0,0,3,2,1,0,1,2,3,3,1,1,1,0,2,1,3,4,"10591.5","static/images/instructions/Slide14.png","39","","","","","","","","","","","","","","","","","","",""
"","image-keyboard-response",75,351734,"0.0-3.7-0.7",74,18,FALSE,1665691244889,750,"q","q","Only if I get the answer right","You win money","A fixed time limit",5,"female","taking a break between the rounds ","no",1,0,0,0,0,1,0,0,0,0,0,0,0,0,0,0,0,0,0,0,0,1,3,0,0,1,0,1,0,0,1,3,2,0,2,3,3,0,2,0,2,3,3,0,0,0,0,3,2,1,0,1,2,3,3,1,1,1,0,2,1,3,4,"5095.39999999851","static/images/instructions/Slide15.png","39","","","","","","","","","","","","","","","","","","",""
"","image-keyboard-response",76,355822,"0.0-3.8-0.8",74,18,FALSE,1665691244889,750,"q","q","Only if I get the answer right","You win money","A fixed time limit",5,"female","taking a break between the rounds ","no",1,0,0,0,0,1,0,0,0,0,0,0,0,0,0,0,0,0,0,0,0,1,3,0,0,1,0,1,0,0,1,3,2,0,2,3,3,0,2,0,2,3,3,0,0,0,0,3,2,1,0,1,2,3,3,1,1,1,0,2,1,3,4,"4087.2999999970198","static/images/instructions/Slide16.png","39","","","","","","","","","","","","","","","","","","",""
"","image-keyboard-response",77,359342,"0.0-3.9-0.9",74,18,FALSE,1665691244889,750,"q","q","Only if I get the answer right","You win money","A fixed time limit",5,"female","taking a break between the rounds ","no",1,0,0,0,0,1,0,0,0,0,0,0,0,0,0,0,0,0,0,0,0,1,3,0,0,1,0,1,0,0,1,3,2,0,2,3,3,0,2,0,2,3,3,0,0,0,0,3,2,1,0,1,2,3,3,1,1,1,0,2,1,3,4,"3519.39999999851","static/images/instructions/Slide17.png","39","","","","","","","","","","","","","","","","","","",""
"","survey-multi-choice",78,387172,"0.0-4.0",74,18,FALSE,1665691244889,750,"q","q","Only if I get the answer right","You win money","A fixed time limit",5,"female","taking a break between the rounds ","no",1,0,0,0,0,1,0,0,0,0,0,0,0,0,0,0,0,0,0,0,0,1,3,0,0,1,0,1,0,0,1,3,2,0,2,3,3,0,2,0,2,3,3,0,0,0,0,3,2,1,0,1,2,3,3,1,1,1,0,2,1,3,4,"27782.89999999851","","","","","","","","","","","","","","{""q1"":""q"",""q2"":""q"",""q3"":""Only if I get the answer right"",""q4"":""You win money"",""q5"":""A fixed time limit""}","[2,3,4,0,1]","","","","","",""
"","image-keyboard-response",79,394815,"0.0-5.0-0.0",74,18,FALSE,1665691244889,750,"q","q","Only if I get the answer right","You win money","A fixed time limit",5,"female","taking a break between the rounds ","no",1,0,0,0,0,1,0,0,0,0,0,0,0,0,0,0,0,0,0,0,0,1,3,0,0,1,0,1,0,0,1,3,2,0,2,3,3,0,2,0,2,3,3,0,0,0,0,3,2,1,0,1,2,3,3,1,1,1,0,2,1,3,4,"7583.60000000149","static/images/instructions/Slide18.png","39","","","","","","","","","","","","","","","","","","",""
"","html-keyboard-response",80,395821,"0.0-6.0-0.0-0.0",74,18,FALSE,1665691244889,750,"q","q","Only if I get the answer right","You win money","A fixed time limit",5,"female","taking a break between the rounds ","no",1,0,0,0,0,1,0,0,0,0,0,0,0,0,0,0,0,0,0,0,0,1,3,0,0,1,0,1,0,0,1,3,2,0,2,3,3,0,2,0,2,3,3,0,0,0,0,3,2,1,0,1,2,3,3,1,1,1,0,2,1,3,4,"null","<div style=""font-size:75px;"">3</div>","null","","","","","","","","","","","","","","","","","","",""
"","html-keyboard-response",81,396826,"0.0-6.0-0.1-0.1",74,18,FALSE,1665691244889,750,"q","q","Only if I get the answer right","You win money","A fixed time limit",5,"female","taking a break between the rounds ","no",1,0,0,0,0,1,0,0,0,0,0,0,0,0,0,0,0,0,0,0,0,1,3,0,0,1,0,1,0,0,1,3,2,0,2,3,3,0,2,0,2,3,3,0,0,0,0,3,2,1,0,1,2,3,3,1,1,1,0,2,1,3,4,"null","<div style=""font-size:75px;"">2</div>","null","","","","","","","","","","","","","","","","","","",""
"","html-keyboard-response",82,397843,"0.0-6.0-0.2-0.2",74,18,FALSE,1665691244889,750,"q","q","Only if I get the answer right","You win money","A fixed time limit",5,"female","taking a break between the rounds ","no",1,0,0,0,0,1,0,0,0,0,0,0,0,0,0,0,0,0,0,0,0,1,3,0,0,1,0,1,0,0,1,3,2,0,2,3,3,0,2,0,2,3,3,0,0,0,0,3,2,1,0,1,2,3,3,1,1,1,0,2,1,3,4,"null","<div style=""font-size:75px;"">1</div>","null","","","","","","","","","","","","","","","","","","",""
"","html-keyboard-response",83,398398,"0.0-6.0-1.0-0.0",74,18,FALSE,1665691244889,750,"q","q","Only if I get the answer right","You win money","A fixed time limit",5,"female","taking a break between the rounds ","no",1,0,0,0,0,1,0,0,0,0,0,0,0,0,0,0,0,0,0,0,0,1,3,0,0,1,0,1,0,0,1,3,2,0,2,3,3,0,2,0,2,3,3,0,0,0,0,3,2,1,0,1,2,3,3,1,1,1,0,2,1,3,4,"539.5","<div style=""color:green; font-size:75px;""><b>$0.02</b></div><br><br><br><br><table><tr><td><img src=static/images/oddball_up.png></td><td><img src=static/images/oddball_down.png></td><td><img src=static/images/oddball_up.png></td></tr></table>","87","1","","","","","","","","","","","","","","","","","",""
"","html-keyboard-response",84,398506,"0.0-6.0-1.0-1.0",74,18,FALSE,1665691244889,750,"q","q","Only if I get the answer right","You win money","A fixed time limit",5,"female","taking a break between the rounds ","no",1,0,0,0,0,1,0,0,0,0,0,0,0,0,0,0,0,0,0,0,0,1,3,0,0,1,0,1,0,0,1,3,2,0,2,3,3,0,2,0,2,3,3,0,0,0,0,3,2,1,0,1,2,3,3,1,1,1,0,2,1,3,4,"539.5","","w","","true","0","0","up","down","1","w","1","0","1665691644578","","","false","60","0","0","0.02","null"
"","html-keyboard-response",85,399126,"0.0-6.0-1.1-0.1",74,18,FALSE,1665691244889,750,"q","q","Only if I get the answer right","You win money","A fixed time limit",5,"female","taking a break between the rounds ","no",1,0,0,0,0,1,0,0,0,0,0,0,0,0,0,0,0,0,0,0,0,1,3,0,0,1,0,1,0,0,1,3,2,0,2,3,3,0,2,0,2,3,3,0,0,0,0,3,2,1,0,1,2,3,3,1,1,1,0,2,1,3,4,"619.3999999985099","<div style=""color:green; font-size:75px;""><b>$0.02</b></div><br><br><br><br><table><tr><td><img src=static/images/oddball_down.png></td><td><img src=static/images/oddball_up.png></td><td><img src=static/images/oddball_up.png></td></tr></table>","81","1","","","","","","","","","","","","","","","","","",""
"","html-keyboard-response",86,399239,"0.0-6.0-1.1-1.1",74,18,FALSE,1665691244889,750,"q","q","Only if I get the answer right","You win money","A fixed time limit",5,"female","taking a break between the rounds ","no",1,0,0,0,0,1,0,0,0,0,0,0,0,0,0,0,0,0,0,0,0,1,3,0,0,1,0,1,0,0,1,3,2,0,2,3,3,0,2,0,2,3,3,0,0,0,0,3,2,1,0,1,2,3,3,1,1,1,0,2,1,3,4,"619.3999999985099","","q","","true","0","1","up","down","0","q","1","0","1665691645311","","","false","60","1","0.0166666666666667","0.02","false"
"","html-keyboard-response",87,399838,"0.0-6.0-1.2-0.2",74,18,FALSE,1665691244889,750,"q","q","Only if I get the answer right","You win money","A fixed time limit",5,"female","taking a break between the rounds ","no",1,0,0,0,0,1,0,0,0,0,0,0,0,0,0,0,0,0,0,0,0,1,3,0,0,1,0,1,0,0,1,3,2,0,2,3,3,0,2,0,2,3,3,0,0,0,0,3,2,1,0,1,2,3,3,1,1,1,0,2,1,3,4,"599.3999999985099","<div style=""color:green; font-size:75px;""><b>$0.02</b></div><br><br><br><br><table><tr><td><img src=static/images/oddball_down.png></td><td><img src=static/images/oddball_down.png></td><td><img src=static/images/oddball_up.png></td></tr></table>","69","1","","","","","","","","","","","","","","","","","",""
"","html-keyboard-response",88,399942,"0.0-6.0-1.2-1.2",74,18,FALSE,1665691244889,750,"q","q","Only if I get the answer right","You win money","A fixed time limit",5,"female","taking a break between the rounds ","no",1,0,0,0,0,1,0,0,0,0,0,0,0,0,0,0,0,0,0,0,0,1,3,0,0,1,0,1,0,0,1,3,2,0,2,3,3,0,2,0,2,3,3,0,0,0,0,3,2,1,0,1,2,3,3,1,1,1,0,2,1,3,4,"599.3999999985099","","e","","true","0","2","down","up","2","e","1","0","1665691646014","","","false","60","2","0.0333333333333333","0.02","false"
"","html-keyboard-response",89,400462,"0.0-6.0-1.3-0.3",74,18,FALSE,1665691244889,750,"q","q","Only if I get the answer right","You win money","A fixed time limit",5,"female","taking a break between the rounds ","no",1,0,0,0,0,1,0,0,0,0,0,0,0,0,0,0,0,0,0,0,0,1,3,0,0,1,0,1,0,0,1,3,2,0,2,3,3,0,2,0,2,3,3,0,0,0,0,3,2,1,0,1,2,3,3,1,1,1,0,2,1,3,4,"519.3999999985099","<div style=""color:green; font-size:75px;""><b>$0.02</b></div><br><br><br><br><table><tr><td><img src=static/images/oddball_down.png></td><td><img src=static/images/oddball_down.png></td><td><img src=static/images/oddball_up.png></td></tr></table>","69","1","","","","","","","","","","","","","","","","","",""
"","html-keyboard-response",90,400593,"0.0-6.0-1.3-1.3",74,18,FALSE,1665691244889,750,"q","q","Only if I get the answer right","You win money","A fixed time limit",5,"female","taking a break between the rounds ","no",1,0,0,0,0,1,0,0,0,0,0,0,0,0,0,0,0,0,0,0,0,1,3,0,0,1,0,1,0,0,1,3,2,0,2,3,3,0,2,0,2,3,3,0,0,0,0,3,2,1,0,1,2,3,3,1,1,1,0,2,1,3,4,"519.3999999985099","","e","","true","0","3","down","up","2","e","1","0","1665691646665","","","false","60","3","0.05","0.02","false"
"","html-keyboard-response",91,401102,"0.0-6.0-1.4-0.4",74,18,FALSE,1665691244889,750,"q","q","Only if I get the answer right","You win money","A fixed time limit",5,"female","taking a break between the rounds ","no",1,0,0,0,0,1,0,0,0,0,0,0,0,0,0,0,0,0,0,0,0,1,3,0,0,1,0,1,0,0,1,3,2,0,2,3,3,0,2,0,2,3,3,0,0,0,0,3,2,1,0,1,2,3,3,1,1,1,0,2,1,3,4,"508.3999999985099","<div style=""color:green; font-size:75px;""><b>$0.02</b></div><br><br><br><br><table><tr><td><img src=static/images/oddball_down.png></td><td><img src=static/images/oddball_up.png></td><td><img src=static/images/oddball_down.png></td></tr></table>","87","1","","","","","","","","","","","","","","","","","",""
"","html-keyboard-response",92,401211,"0.0-6.0-1.4-1.4",74,18,FALSE,1665691244889,750,"q","q","Only if I get the answer right","You win money","A fixed time limit",5,"female","taking a break between the rounds ","no",1,0,0,0,0,1,0,0,0,0,0,0,0,0,0,0,0,0,0,0,0,1,3,0,0,1,0,1,0,0,1,3,2,0,2,3,3,0,2,0,2,3,3,0,0,0,0,3,2,1,0,1,2,3,3,1,1,1,0,2,1,3,4,"508.3999999985099","","w","","true","0","4","down","up","1","w","1","0","1665691647283","","","false","60","4","0.0666666666666667","0.02","false"
"","html-keyboard-response",93,401766,"0.0-6.0-1.5-0.5",74,18,FALSE,1665691244889,750,"q","q","Only if I get the answer right","You win money","A fixed time limit",5,"female","taking a break between the rounds ","no",1,0,0,0,0,1,0,0,0,0,0,0,0,0,0,0,0,0,0,0,0,1,3,0,0,1,0,1,0,0,1,3,2,0,2,3,3,0,2,0,2,3,3,0,0,0,0,3,2,1,0,1,2,3,3,1,1,1,0,2,1,3,4,"554.2999999970198","<div style=""color:green; font-size:75px;""><b>$0.02</b></div><br><br><br><br><table><tr><td><img src=static/images/oddball_down.png></td><td><img src=static/images/oddball_down.png></td><td><img src=static/images/oddball_up.png></td></tr></table>","69","1","","","","","","","","","","","","","","","","","",""
"","html-keyboard-response",94,401879,"0.0-6.0-1.5-1.5",74,18,FALSE,1665691244889,750,"q","q","Only if I get the answer right","You win money","A fixed time limit",5,"female","taking a break between the rounds ","no",1,0,0,0,0,1,0,0,0,0,0,0,0,0,0,0,0,0,0,0,0,1,3,0,0,1,0,1,0,0,1,3,2,0,2,3,3,0,2,0,2,3,3,0,0,0,0,3,2,1,0,1,2,3,3,1,1,1,0,2,1,3,4,"554.2999999970198","","e","","true","0","5","down","up","2","e","1","0","1665691647951","","","false","60","5","0.0833333333333333","0.02","false"
"","html-keyboard-response",95,402398,"0.0-6.0-1.6-0.6",74,18,FALSE,1665691244889,750,"q","q","Only if I get the answer right","You win money","A fixed time limit",5,"female","taking a break between the rounds ","no",1,0,0,0,0,1,0,0,0,0,0,0,0,0,0,0,0,0,0,0,0,1,3,0,0,1,0,1,0,0,1,3,2,0,2,3,3,0,2,0,2,3,3,0,0,0,0,3,2,1,0,1,2,3,3,1,1,1,0,2,1,3,4,"518.7000000029802","<div style=""color:green; font-size:75px;""><b>$0.02</b></div><br><br><br><br><table><tr><td><img src=static/images/oddball_down.png></td><td><img src=static/images/oddball_down.png></td><td><img src=static/images/oddball_up.png></td></tr></table>","69","1","","","","","","","","","","","","","","","","","",""
"","html-keyboard-response",96,402514,"0.0-6.0-1.6-1.6",74,18,FALSE,1665691244889,750,"q","q","Only if I get the answer right","You win money","A fixed time limit",5,"female","taking a break between the rounds ","no",1,0,0,0,0,1,0,0,0,0,0,0,0,0,0,0,0,0,0,0,0,1,3,0,0,1,0,1,0,0,1,3,2,0,2,3,3,0,2,0,2,3,3,0,0,0,0,3,2,1,0,1,2,3,3,1,1,1,0,2,1,3,4,"518.7000000029802","","e","","true","0","6","down","up","2","e","1","0","1665691648586","","","false","60","6","0.1","0.02","false"
"","html-keyboard-response",97,402990,"0.0-6.0-1.7-0.7",74,18,FALSE,1665691244889,750,"q","q","Only if I get the answer right","You win money","A fixed time limit",5,"female","taking a break between the rounds ","no",1,0,0,0,0,1,0,0,0,0,0,0,0,0,0,0,0,0,0,0,0,1,3,0,0,1,0,1,0,0,1,3,2,0,2,3,3,0,2,0,2,3,3,0,0,0,0,3,2,1,0,1,2,3,3,1,1,1,0,2,1,3,4,"475.5","<div style=""color:green; font-size:75px;""><b>$0.02</b></div><br><br><br><br><table><tr><td><img src=static/images/oddball_up.png></td><td><img src=static/images/oddball_down.png></td><td><img src=static/images/oddball_up.png></td></tr></table>","81","1","","","","","","","","","","","","","","","","","",""
"","html-keyboard-response",98,403098,"0.0-6.0-1.7-1.7",74,18,FALSE,1665691244889,750,"q","q","Only if I get the answer right","You win money","A fixed time limit",5,"female","taking a break between the rounds ","no",1,0,0,0,0,1,0,0,0,0,0,0,0,0,0,0,0,0,0,0,0,1,3,0,0,1,0,1,0,0,1,3,2,0,2,3,3,0,2,0,2,3,3,0,0,0,0,3,2,1,0,1,2,3,3,1,1,1,0,2,1,3,4,"475.5","","q","","true","0","7","up","down","1","w","0","0","1665691649170","","","false","60","7","0.116666666666667","0.02","false"
"","html-keyboard-response",99,403853,"0.0-6.0-1.8-0.8",74,18,FALSE,1665691244889,750,"q","q","Only if I get the answer right","You win money","A fixed time limit",5,"female","taking a break between the rounds ","no",1,0,0,0,0,1,0,0,0,0,0,0,0,0,0,0,0,0,0,0,0,1,3,0,0,1,0,1,0,0,1,3,2,0,2,3,3,0,2,0,2,3,3,0,0,0,0,3,2,1,0,1,2,3,3,1,1,1,0,2,1,3,4,"null","<div style=""color:green; font-size:75px;""><b>$0.02</b></div><br><br><br><br><table><tr><td><img src=static/images/oddball_up.png></td><td><img src=static/images/oddball_down.png></td><td><img src=static/images/oddball_down.png></td></tr></table>","null","","","","","","","","","","","","","","","","","","",""
"","html-keyboard-response",100,403972,"0.0-6.0-1.8-1.8",74,18,FALSE,1665691244889,750,"q","q","Only if I get the answer right","You win money","A fixed time limit",5,"female","taking a break between the rounds ","no",1,0,0,0,0,1,0,0,0,0,0,0,0,0,0,0,0,0,0,0,0,1,3,0,0,1,0,1,0,0,1,3,2,0,2,3,3,0,2,0,2,3,3,0,0,0,0,3,2,1,0,1,2,3,3,1,1,1,0,2,1,3,4,"null","","null","","true","0","8","down","up","0","q","0","0","1665691650044","","","false","60","8","0.116666666666667","0.02","true"
"","html-keyboard-response",101,404724,"0.0-6.0-1.9-0.9",74,18,FALSE,1665691244889,750,"q","q","Only if I get the answer right","You win money","A fixed time limit",5,"female","taking a break between the rounds ","no",1,0,0,0,0,1,0,0,0,0,0,0,0,0,0,0,0,0,0,0,0,1,3,0,0,1,0,1,0,0,1,3,2,0,2,3,3,0,2,0,2,3,3,0,0,0,0,3,2,1,0,1,2,3,3,1,1,1,0,2,1,3,4,"null","<div style=""color:green; font-size:75px;""><b>$0.02</b></div><br><br><br><br><table><tr><td><img src=static/images/oddball_down.png></td><td><img src=static/images/oddball_up.png></td><td><img src=static/images/oddball_up.png></td></tr></table>","null","","","","","","","","","","","","","","","","","","",""
"","html-keyboard-response",102,404839,"0.0-6.0-1.9-1.9",74,18,FALSE,1665691244889,750,"q","q","Only if I get the answer right","You win money","A fixed time limit",5,"female","taking a break between the rounds ","no",1,0,0,0,0,1,0,0,0,0,0,0,0,0,0,0,0,0,0,0,0,1,3,0,0,1,0,1,0,0,1,3,2,0,2,3,3,0,2,0,2,3,3,0,0,0,0,3,2,1,0,1,2,3,3,1,1,1,0,2,1,3,4,"null","","null","","true","0","9","up","down","0","q","0","0","1665691650911","","","false","60","9","0.116666666666667","0.02","true"
"","html-keyboard-response",103,405390,"0.0-6.0-1.10-0.10",74,18,FALSE,1665691244889,750,"q","q","Only if I get the answer right","You win money","A fixed time limit",5,"female","taking a break between the rounds ","no",1,0,0,0,0,1,0,0,0,0,0,0,0,0,0,0,0,0,0,0,0,1,3,0,0,1,0,1,0,0,1,3,2,0,2,3,3,0,2,0,2,3,3,0,0,0,0,3,2,1,0,1,2,3,3,1,1,1,0,2,1,3,4,"550.8999999985099","<div style=""color:green; font-size:75px;""><b>$0.02</b></div><br><br><br><br><table><tr><td><img src=static/images/oddball_up.png></td><td><img src=static/images/oddball_down.png></td><td><img src=static/images/oddball_down.png></td></tr></table>","81","1","","","","","","","","","","","","","","","","","",""
"","html-keyboard-response",104,405503,"0.0-6.0-1.10-1.10",74,18,FALSE,1665691244889,750,"q","q","Only if I get the answer right","You win money","A fixed time limit",5,"female","taking a break between the rounds ","no",1,0,0,0,0,1,0,0,0,0,0,0,0,0,0,0,0,0,0,0,0,1,3,0,0,1,0,1,0,0,1,3,2,0,2,3,3,0,2,0,2,3,3,0,0,0,0,3,2,1,0,1,2,3,3,1,1,1,0,2,1,3,4,"550.8999999985099","","q","","true","0","10","down","up","0","q","1","0","1665691651575","","","false","60","10","0.116666666666667","0.02","false"
"","html-keyboard-response",105,406259,"0.0-6.0-1.11-0.11",74,18,FALSE,1665691244889,750,"q","q","Only if I get the answer right","You win money","A fixed time limit",5,"female","taking a break between the rounds ","no",1,0,0,0,0,1,0,0,0,0,0,0,0,0,0,0,0,0,0,0,0,1,3,0,0,1,0,1,0,0,1,3,2,0,2,3,3,0,2,0,2,3,3,0,0,0,0,3,2,1,0,1,2,3,3,1,1,1,0,2,1,3,4,"null","<div style=""color:green; font-size:75px;""><b>$0.02</b></div><br><br><br><br><table><tr><td><img src=static/images/oddball_up.png></td><td><img src=static/images/oddball_down.png></td><td><img src=static/images/oddball_down.png></td></tr></table>","null","","","","","","","","","","","","","","","","","","",""
"","html-keyboard-response",106,406376,"0.0-6.0-1.11-1.11",74,18,FALSE,1665691244889,750,"q","q","Only if I get the answer right","You win money","A fixed time limit",5,"female","taking a break between the rounds ","no",1,0,0,0,0,1,0,0,0,0,0,0,0,0,0,0,0,0,0,0,0,1,3,0,0,1,0,1,0,0,1,3,2,0,2,3,3,0,2,0,2,3,3,0,0,0,0,3,2,1,0,1,2,3,3,1,1,1,0,2,1,3,4,"null","","null","","true","0","11","down","up","0","q","0","0","1665691652448","","","false","60","11","0.133333333333333","0.02","true"
"","html-keyboard-response",107,406671,"0.0-6.0-1.12-0.12",74,18,FALSE,1665691244889,750,"q","q","Only if I get the answer right","You win money","A fixed time limit",5,"female","taking a break between the rounds ","no",1,0,0,0,0,1,0,0,0,0,0,0,0,0,0,0,0,0,0,0,0,1,3,0,0,1,0,1,0,0,1,3,2,0,2,3,3,0,2,0,2,3,3,0,0,0,0,3,2,1,0,1,2,3,3,1,1,1,0,2,1,3,4,"285.59999999403954","<div style=""color:green; font-size:75px;""><b>$0.02</b></div><br><br><br><br><table><tr><td><img src=static/images/oddball_up.png></td><td><img src=static/images/oddball_down.png></td><td><img src=static/images/oddball_up.png></td></tr></table>","81","1","","","","","","","","","","","","","","","","","",""
"","html-keyboard-response",108,406780,"0.0-6.0-1.12-1.12",74,18,FALSE,1665691244889,750,"q","q","Only if I get the answer right","You win money","A fixed time limit",5,"female","taking a break between the rounds ","no",1,0,0,0,0,1,0,0,0,0,0,0,0,0,0,0,0,0,0,0,0,1,3,0,0,1,0,1,0,0,1,3,2,0,2,3,3,0,2,0,2,3,3,0,0,0,0,3,2,1,0,1,2,3,3,1,1,1,0,2,1,3,4,"285.59999999403954","","q","","true","0","12","up","down","1","w","0","0","1665691652852","","","false","60","12","0.133333333333333","0.02","false"
"","html-keyboard-response",109,407536,"0.0-6.0-1.13-0.13",74,18,FALSE,1665691244889,750,"q","q","Only if I get the answer right","You win money","A fixed time limit",5,"female","taking a break between the rounds ","no",1,0,0,0,0,1,0,0,0,0,0,0,0,0,0,0,0,0,0,0,0,1,3,0,0,1,0,1,0,0,1,3,2,0,2,3,3,0,2,0,2,3,3,0,0,0,0,3,2,1,0,1,2,3,3,1,1,1,0,2,1,3,4,"null","<div style=""color:green; font-size:75px;""><b>$0.02</b></div><br><br><br><br><table><tr><td><img src=static/images/oddball_down.png></td><td><img src=static/images/oddball_up.png></td><td><img src=static/images/oddball_up.png></td></tr></table>","null","","","","","","","","","","","","","","","","","","",""
"","html-keyboard-response",110,407653,"0.0-6.0-1.13-1.13",74,18,FALSE,1665691244889,750,"q","q","Only if I get the answer right","You win money","A fixed time limit",5,"female","taking a break between the rounds ","no",1,0,0,0,0,1,0,0,0,0,0,0,0,0,0,0,0,0,0,0,0,1,3,0,0,1,0,1,0,0,1,3,2,0,2,3,3,0,2,0,2,3,3,0,0,0,0,3,2,1,0,1,2,3,3,1,1,1,0,2,1,3,4,"null","","null","","true","0","13","up","down","0","q","0","0","1665691653725","","","false","60","13","0.133333333333333","0.02","true"
"","html-keyboard-response",111,408231,"0.0-6.0-1.14-0.14",74,18,FALSE,1665691244889,750,"q","q","Only if I get the answer right","You win money","A fixed time limit",5,"female","taking a break between the rounds ","no",1,0,0,0,0,1,0,0,0,0,0,0,0,0,0,0,0,0,0,0,0,1,3,0,0,1,0,1,0,0,1,3,2,0,2,3,3,0,2,0,2,3,3,0,0,0,0,3,2,1,0,1,2,3,3,1,1,1,0,2,1,3,4,"578.1999999955297","<div style=""color:green; font-size:75px;""><b>$0.02</b></div><br><br><br><br><table><tr><td><img src=static/images/oddball_down.png></td><td><img src=static/images/oddball_up.png></td><td><img src=static/images/oddball_down.png></td></tr></table>","69","1","","","","","","","","","","","","","","","","","",""
"","html-keyboard-response",112,408334,"0.0-6.0-1.14-1.14",74,18,FALSE,1665691244889,750,"q","q","Only if I get the answer right","You win money","A fixed time limit",5,"female","taking a break between the rounds ","no",1,0,0,0,0,1,0,0,0,0,0,0,0,0,0,0,0,0,0,0,0,1,3,0,0,1,0,1,0,0,1,3,2,0,2,3,3,0,2,0,2,3,3,0,0,0,0,3,2,1,0,1,2,3,3,1,1,1,0,2,1,3,4,"578.1999999955297","","e","","true","0","14","down","up","1","w","0","0","1665691654406","","","false","60","14","0.133333333333333","0.02","false"
"","html-keyboard-response",113,409089,"0.0-6.0-1.15-0.15",74,18,FALSE,1665691244889,750,"q","q","Only if I get the answer right","You win money","A fixed time limit",5,"female","taking a break between the rounds ","no",1,0,0,0,0,1,0,0,0,0,0,0,0,0,0,0,0,0,0,0,0,1,3,0,0,1,0,1,0,0,1,3,2,0,2,3,3,0,2,0,2,3,3,0,0,0,0,3,2,1,0,1,2,3,3,1,1,1,0,2,1,3,4,"null","<div style=""color:green; font-size:75px;""><b>$0.02</b></div><br><br><br><br><table><tr><td><img src=static/images/oddball_down.png></td><td><img src=static/images/oddball_up.png></td><td><img src=static/images/oddball_up.png></td></tr></table>","null","","","","","","","","","","","","","","","","","","",""
"","html-keyboard-response",114,409207,"0.0-6.0-1.15-1.15",74,18,FALSE,1665691244889,750,"q","q","Only if I get the answer right","You win money","A fixed time limit",5,"female","taking a break between the rounds ","no",1,0,0,0,0,1,0,0,0,0,0,0,0,0,0,0,0,0,0,0,0,1,3,0,0,1,0,1,0,0,1,3,2,0,2,3,3,0,2,0,2,3,3,0,0,0,0,3,2,1,0,1,2,3,3,1,1,1,0,2,1,3,4,"null","","null","","true","0","15","up","down","0","q","0","0","1665691655279","","","false","60","15","0.133333333333333","0.02","true"
"","html-keyboard-response",115,409448,"0.0-6.0-1.16-0.16",74,18,FALSE,1665691244889,750,"q","q","Only if I get the answer right","You win money","A fixed time limit",5,"female","taking a break between the rounds ","no",1,0,0,0,0,1,0,0,0,0,0,0,0,0,0,0,0,0,0,0,0,1,3,0,0,1,0,1,0,0,1,3,2,0,2,3,3,0,2,0,2,3,3,0,0,0,0,3,2,1,0,1,2,3,3,1,1,1,0,2,1,3,4,"239.59999999403954","<div style=""color:green; font-size:75px;""><b>$0.02</b></div><br><br><br><br><table><tr><td><img src=static/images/oddball_up.png></td><td><img src=static/images/oddball_down.png></td><td><img src=static/images/oddball_down.png></td></tr></table>","81","1","","","","","","","","","","","","","","","","","",""
"","html-keyboard-response",116,409552,"0.0-6.0-1.16-1.16",74,18,FALSE,1665691244889,750,"q","q","Only if I get the answer right","You win money","A fixed time limit",5,"female","taking a break between the rounds ","no",1,0,0,0,0,1,0,0,0,0,0,0,0,0,0,0,0,0,0,0,0,1,3,0,0,1,0,1,0,0,1,3,2,0,2,3,3,0,2,0,2,3,3,0,0,0,0,3,2,1,0,1,2,3,3,1,1,1,0,2,1,3,4,"239.59999999403954","","q","","true","0","16","down","up","0","q","1","0","1665691655624","","","false","60","16","0.133333333333333","0.02","false"
"","html-keyboard-response",117,410308,"0.0-6.0-1.17-0.17",74,18,FALSE,1665691244889,750,"q","q","Only if I get the answer right","You win money","A fixed time limit",5,"female","taking a break between the rounds ","no",1,0,0,0,0,1,0,0,0,0,0,0,0,0,0,0,0,0,0,0,0,1,3,0,0,1,0,1,0,0,1,3,2,0,2,3,3,0,2,0,2,3,3,0,0,0,0,3,2,1,0,1,2,3,3,1,1,1,0,2,1,3,4,"null","<div style=""color:green; font-size:75px;""><b>$0.02</b></div><br><br><br><br><table><tr><td><img src=static/images/oddball_up.png></td><td><img src=static/images/oddball_down.png></td><td><img src=static/images/oddball_up.png></td></tr></table>","null","","","","","","","","","","","","","","","","","","",""
"","html-keyboard-response",118,410425,"0.0-6.0-1.17-1.17",74,18,FALSE,1665691244889,750,"q","q","Only if I get the answer right","You win money","A fixed time limit",5,"female","taking a break between the rounds ","no",1,0,0,0,0,1,0,0,0,0,0,0,0,0,0,0,0,0,0,0,0,1,3,0,0,1,0,1,0,0,1,3,2,0,2,3,3,0,2,0,2,3,3,0,0,0,0,3,2,1,0,1,2,3,3,1,1,1,0,2,1,3,4,"null","","null","","true","0","17","up","down","1","w","0","0","1665691656497","","","false","60","17","0.15","0.02","true"
"","html-keyboard-response",119,411178,"0.0-6.0-1.18-0.18",74,18,FALSE,1665691244889,750,"q","q","Only if I get the answer right","You win money","A fixed time limit",5,"female","taking a break between the rounds ","no",1,0,0,0,0,1,0,0,0,0,0,0,0,0,0,0,0,0,0,0,0,1,3,0,0,1,0,1,0,0,1,3,2,0,2,3,3,0,2,0,2,3,3,0,0,0,0,3,2,1,0,1,2,3,3,1,1,1,0,2,1,3,4,"null","<div style=""color:green; font-size:75px;""><b>$0.02</b></div><br><br><br><br><table><tr><td><img src=static/images/oddball_up.png></td><td><img src=static/images/oddball_down.png></td><td><img src=static/images/oddball_down.png></td></tr></table>","null","","","","","","","","","","","","","","","","","","",""
"","html-keyboard-response",120,411293,"0.0-6.0-1.18-1.18",74,18,FALSE,1665691244889,750,"q","q","Only if I get the answer right","You win money","A fixed time limit",5,"female","taking a break between the rounds ","no",1,0,0,0,0,1,0,0,0,0,0,0,0,0,0,0,0,0,0,0,0,1,3,0,0,1,0,1,0,0,1,3,2,0,2,3,3,0,2,0,2,3,3,0,0,0,0,3,2,1,0,1,2,3,3,1,1,1,0,2,1,3,4,"null","","null","","true","0","18","down","up","0","q","0","0","1665691657365","","","false","60","18","0.15","0.02","true"
"","html-keyboard-response",121,411975,"0.0-6.0-1.19-0.19",74,18,FALSE,1665691244889,750,"q","q","Only if I get the answer right","You win money","A fixed time limit",5,"female","taking a break between the rounds ","no",1,0,0,0,0,1,0,0,0,0,0,0,0,0,0,0,0,0,0,0,0,1,3,0,0,1,0,1,0,0,1,3,2,0,2,3,3,0,2,0,2,3,3,0,0,0,0,3,2,1,0,1,2,3,3,1,1,1,0,2,1,3,4,"681.2000000029802","<div style=""color:green; font-size:75px;""><b>$0.02</b></div><br><br><br><br><table><tr><td><img src=static/images/oddball_up.png></td><td><img src=static/images/oddball_up.png></td><td><img src=static/images/oddball_down.png></td></tr></table>","69","1","","","","","","","","","","","","","","","","","",""
"","html-keyboard-response",122,412091,"0.0-6.0-1.19-1.19",74,18,FALSE,1665691244889,750,"q","q","Only if I get the answer right","You win money","A fixed time limit",5,"female","taking a break between the rounds ","no",1,0,0,0,0,1,0,0,0,0,0,0,0,0,0,0,0,0,0,0,0,1,3,0,0,1,0,1,0,0,1,3,2,0,2,3,3,0,2,0,2,3,3,0,0,0,0,3,2,1,0,1,2,3,3,1,1,1,0,2,1,3,4,"681.2000000029802","","e","","true","0","19","up","down","2","e","1","0","1665691658163","","","false","60","19","0.15","0.02","false"
"","html-keyboard-response",123,412567,"0.0-6.0-1.20-0.20",74,18,FALSE,1665691244889,750,"q","q","Only if I get the answer right","You win money","A fixed time limit",5,"female","taking a break between the rounds ","no",1,0,0,0,0,1,0,0,0,0,0,0,0,0,0,0,0,0,0,0,0,1,3,0,0,1,0,1,0,0,1,3,2,0,2,3,3,0,2,0,2,3,3,0,0,0,0,3,2,1,0,1,2,3,3,1,1,1,0,2,1,3,4,"475.29999999701977","<div style=""color:green; font-size:75px;""><b>$0.02</b></div><br><br><br><br><table><tr><td><img src=static/images/oddball_up.png></td><td><img src=static/images/oddball_down.png></td><td><img src=static/images/oddball_down.png></td></tr></table>","81","1","","","","","","","","","","","","","","","","","",""
"","html-keyboard-response",124,412676,"0.0-6.0-1.20-1.20",74,18,FALSE,1665691244889,750,"q","q","Only if I get the answer right","You win money","A fixed time limit",5,"female","taking a break between the rounds ","no",1,0,0,0,0,1,0,0,0,0,0,0,0,0,0,0,0,0,0,0,0,1,3,0,0,1,0,1,0,0,1,3,2,0,2,3,3,0,2,0,2,3,3,0,0,0,0,3,2,1,0,1,2,3,3,1,1,1,0,2,1,3,4,"475.29999999701977","","q","","true","0","20","down","up","0","q","1","0","1665691658748","","","false","60","20","0.166666666666667","0.02","false"
"","html-keyboard-response",125,413424,"0.0-6.0-1.21-0.21",74,18,FALSE,1665691244889,750,"q","q","Only if I get the answer right","You win money","A fixed time limit",5,"female","taking a break between the rounds ","no",1,0,0,0,0,1,0,0,0,0,0,0,0,0,0,0,0,0,0,0,0,1,3,0,0,1,0,1,0,0,1,3,2,0,2,3,3,0,2,0,2,3,3,0,0,0,0,3,2,1,0,1,2,3,3,1,1,1,0,2,1,3,4,"746.8999999985099","<div style=""color:green; font-size:75px;""><b>$0.02</b></div><br><br><br><br><table><tr><td><img src=static/images/oddball_down.png></td><td><img src=static/images/oddball_up.png></td><td><img src=static/images/oddball_up.png></td></tr></table>","81","1","","","","","","","","","","","","","","","","","",""
"","html-keyboard-response",126,413527,"0.0-6.0-1.21-1.21",74,18,FALSE,1665691244889,750,"q","q","Only if I get the answer right","You win money","A fixed time limit",5,"female","taking a break between the rounds ","no",1,0,0,0,0,1,0,0,0,0,0,0,0,0,0,0,0,0,0,0,0,1,3,0,0,1,0,1,0,0,1,3,2,0,2,3,3,0,2,0,2,3,3,0,0,0,0,3,2,1,0,1,2,3,3,1,1,1,0,2,1,3,4,"746.8999999985099","","q","","true","0","21","up","down","0","q","1","0","1665691659599","","","false","60","21","0.183333333333333","0.02","false"
"","html-keyboard-response",127,414048,"0.0-6.0-1.22-0.22",74,18,FALSE,1665691244889,750,"q","q","Only if I get the answer right","You win money","A fixed time limit",5,"female","taking a break between the rounds ","no",1,0,0,0,0,1,0,0,0,0,0,0,0,0,0,0,0,0,0,0,0,1,3,0,0,1,0,1,0,0,1,3,2,0,2,3,3,0,2,0,2,3,3,0,0,0,0,3,2,1,0,1,2,3,3,1,1,1,0,2,1,3,4,"520.2000000029802","<div style=""color:green; font-size:75px;""><b>$0.02</b></div><br><br><br><br><table><tr><td><img src=static/images/oddball_down.png></td><td><img src=static/images/oddball_up.png></td><td><img src=static/images/oddball_up.png></td></tr></table>","81","1","","","","","","","","","","","","","","","","","",""
"","html-keyboard-response",128,414161,"0.0-6.0-1.22-1.22",74,18,FALSE,1665691244889,750,"q","q","Only if I get the answer right","You win money","A fixed time limit",5,"female","taking a break between the rounds ","no",1,0,0,0,0,1,0,0,0,0,0,0,0,0,0,0,0,0,0,0,0,1,3,0,0,1,0,1,0,0,1,3,2,0,2,3,3,0,2,0,2,3,3,0,0,0,0,3,2,1,0,1,2,3,3,1,1,1,0,2,1,3,4,"520.2000000029802","","q","","true","0","22","up","down","0","q","1","0","1665691660233","","","false","60","22","0.2","0.02","false"
"","html-keyboard-response",129,414727,"0.0-6.0-1.23-0.23",74,18,FALSE,1665691244889,750,"q","q","Only if I get the answer right","You win money","A fixed time limit",5,"female","taking a break between the rounds ","no",1,0,0,0,0,1,0,0,0,0,0,0,0,0,0,0,0,0,0,0,0,1,3,0,0,1,0,1,0,0,1,3,2,0,2,3,3,0,2,0,2,3,3,0,0,0,0,3,2,1,0,1,2,3,3,1,1,1,0,2,1,3,4,"565.8000000044703","<div style=""color:green; font-size:75px;""><b>$0.02</b></div><br><br><br><br><table><tr><td><img src=static/images/oddball_down.png></td><td><img src=static/images/oddball_up.png></td><td><img src=static/images/oddball_up.png></td></tr></table>","81","1","","","","","","","","","","","","","","","","","",""
"","html-keyboard-response",130,414829,"0.0-6.0-1.23-1.23",74,18,FALSE,1665691244889,750,"q","q","Only if I get the answer right","You win money","A fixed time limit",5,"female","taking a break between the rounds ","no",1,0,0,0,0,1,0,0,0,0,0,0,0,0,0,0,0,0,0,0,0,1,3,0,0,1,0,1,0,0,1,3,2,0,2,3,3,0,2,0,2,3,3,0,0,0,0,3,2,1,0,1,2,3,3,1,1,1,0,2,1,3,4,"565.8000000044703","","q","","true","0","23","up","down","0","q","1","0","1665691660901","","","false","60","23","0.216666666666667","0.02","false"
"","html-keyboard-response",131,415439,"0.0-6.0-1.24-0.24",74,18,FALSE,1665691244889,750,"q","q","Only if I get the answer right","You win money","A fixed time limit",5,"female","taking a break between the rounds ","no",1,0,0,0,0,1,0,0,0,0,0,0,0,0,0,0,0,0,0,0,0,1,3,0,0,1,0,1,0,0,1,3,2,0,2,3,3,0,2,0,2,3,3,0,0,0,0,3,2,1,0,1,2,3,3,1,1,1,0,2,1,3,4,"609.8000000044703","<div style=""color:green; font-size:75px;""><b>$0.02</b></div><br><br><br><br><table><tr><td><img src=static/images/oddball_down.png></td><td><img src=static/images/oddball_up.png></td><td><img src=static/images/oddball_down.png></td></tr></table>","69","1","","","","","","","","","","","","","","","","","",""
"","html-keyboard-response",132,415547,"0.0-6.0-1.24-1.24",74,18,FALSE,1665691244889,750,"q","q","Only if I get the answer right","You win money","A fixed time limit",5,"female","taking a break between the rounds ","no",1,0,0,0,0,1,0,0,0,0,0,0,0,0,0,0,0,0,0,0,0,1,3,0,0,1,0,1,0,0,1,3,2,0,2,3,3,0,2,0,2,3,3,0,0,0,0,3,2,1,0,1,2,3,3,1,1,1,0,2,1,3,4,"609.8000000044703","","e","","true","0","24","down","up","1","w","0","0","1665691661619","","","false","60","24","0.233333333333333","0.02","false"
"","html-keyboard-response",133,416302,"0.0-6.0-1.25-0.25",74,18,FALSE,1665691244889,750,"q","q","Only if I get the answer right","You win money","A fixed time limit",5,"female","taking a break between the rounds ","no",1,0,0,0,0,1,0,0,0,0,0,0,0,0,0,0,0,0,0,0,0,1,3,0,0,1,0,1,0,0,1,3,2,0,2,3,3,0,2,0,2,3,3,0,0,0,0,3,2,1,0,1,2,3,3,1,1,1,0,2,1,3,4,"null","<div style=""color:green; font-size:75px;""><b>$0.02</b></div><br><br><br><br><table><tr><td><img src=static/images/oddball_down.png></td><td><img src=static/images/oddball_up.png></td><td><img src=static/images/oddball_down.png></td></tr></table>","null","","","","","","","","","","","","","","","","","","",""
"","html-keyboard-response",134,416419,"0.0-6.0-1.25-1.25",74,18,FALSE,1665691244889,750,"q","q","Only if I get the answer right","You win money","A fixed time limit",5,"female","taking a break between the rounds ","no",1,0,0,0,0,1,0,0,0,0,0,0,0,0,0,0,0,0,0,0,0,1,3,0,0,1,0,1,0,0,1,3,2,0,2,3,3,0,2,0,2,3,3,0,0,0,0,3,2,1,0,1,2,3,3,1,1,1,0,2,1,3,4,"null","","null","","true","0","25","down","up","1","w","0","0","1665691662491","","","false","60","25","0.233333333333333","0.02","true"
"","html-keyboard-response",135,416895,"0.0-6.0-1.26-0.26",74,18,FALSE,1665691244889,750,"q","q","Only if I get the answer right","You win money","A fixed time limit",5,"female","taking a break between the rounds ","no",1,0,0,0,0,1,0,0,0,0,0,0,0,0,0,0,0,0,0,0,0,1,3,0,0,1,0,1,0,0,1,3,2,0,2,3,3,0,2,0,2,3,3,0,0,0,0,3,2,1,0,1,2,3,3,1,1,1,0,2,1,3,4,"475.59999999403954","<div style=""color:green; font-size:75px;""><b>$0.02</b></div><br><br><br><br><table><tr><td><img src=static/images/oddball_up.png></td><td><img src=static/images/oddball_down.png></td><td><img src=static/images/oddball_up.png></td></tr></table>","87","1","","","","","","","","","","","","","","","","","",""
"","html-keyboard-response",136,417000,"0.0-6.0-1.26-1.26",74,18,FALSE,1665691244889,750,"q","q","Only if I get the answer right","You win money","A fixed time limit",5,"female","taking a break between the rounds ","no",1,0,0,0,0,1,0,0,0,0,0,0,0,0,0,0,0,0,0,0,0,1,3,0,0,1,0,1,0,0,1,3,2,0,2,3,3,0,2,0,2,3,3,0,0,0,0,3,2,1,0,1,2,3,3,1,1,1,0,2,1,3,4,"475.59999999403954","","w","","true","0","26","up","down","1","w","1","0","1665691663072","","","false","60","26","0.233333333333333","0.02","false"
"","html-keyboard-response",137,417727,"0.0-6.0-1.27-0.27",74,18,FALSE,1665691244889,750,"q","q","Only if I get the answer right","You win money","A fixed time limit",5,"female","taking a break between the rounds ","no",1,0,0,0,0,1,0,0,0,0,0,0,0,0,0,0,0,0,0,0,0,1,3,0,0,1,0,1,0,0,1,3,2,0,2,3,3,0,2,0,2,3,3,0,0,0,0,3,2,1,0,1,2,3,3,1,1,1,0,2,1,3,4,"727.1000000014901","<div style=""color:green; font-size:75px;""><b>$0.02</b></div><br><br><br><br><table><tr><td><img src=static/images/oddball_down.png></td><td><img src=static/images/oddball_up.png></td><td><img src=static/images/oddball_up.png></td></tr></table>","81","1","","","","","","","","","","","","","","","","","",""
"","html-keyboard-response",138,417835,"0.0-6.0-1.27-1.27",74,18,FALSE,1665691244889,750,"q","q","Only if I get the answer right","You win money","A fixed time limit",5,"female","taking a break between the rounds ","no",1,0,0,0,0,1,0,0,0,0,0,0,0,0,0,0,0,0,0,0,0,1,3,0,0,1,0,1,0,0,1,3,2,0,2,3,3,0,2,0,2,3,3,0,0,0,0,3,2,1,0,1,2,3,3,1,1,1,0,2,1,3,4,"727.1000000014901","","q","","true","0","27","up","down","0","q","1","0","1665691663907","","","false","60","27","0.25","0.02","false"
"","html-keyboard-response",139,418519,"0.0-6.0-1.28-0.28",74,18,FALSE,1665691244889,750,"q","q","Only if I get the answer right","You win money","A fixed time limit",5,"female","taking a break between the rounds ","no",1,0,0,0,0,1,0,0,0,0,0,0,0,0,0,0,0,0,0,0,0,1,3,0,0,1,0,1,0,0,1,3,2,0,2,3,3,0,2,0,2,3,3,0,0,0,0,3,2,1,0,1,2,3,3,1,1,1,0,2,1,3,4,"684.2000000029802","<div style=""color:green; font-size:75px;""><b>$0.02</b></div><br><br><br><br><table><tr><td><img src=static/images/oddball_down.png></td><td><img src=static/images/oddball_up.png></td><td><img src=static/images/oddball_up.png></td></tr></table>","81","1","","","","","","","","","","","","","","","","","",""
"","html-keyboard-response",140,418635,"0.0-6.0-1.28-1.28",74,18,FALSE,1665691244889,750,"q","q","Only if I get the answer right","You win money","A fixed time limit",5,"female","taking a break between the rounds ","no",1,0,0,0,0,1,0,0,0,0,0,0,0,0,0,0,0,0,0,0,0,1,3,0,0,1,0,1,0,0,1,3,2,0,2,3,3,0,2,0,2,3,3,0,0,0,0,3,2,1,0,1,2,3,3,1,1,1,0,2,1,3,4,"684.2000000029802","","q","","true","0","28","up","down","0","q","1","0","1665691664707","","","false","60","28","0.266666666666667","0.02","false"
"","html-keyboard-response",141,419128,"0.0-6.0-1.29-0.29",74,18,FALSE,1665691244889,750,"q","q","Only if I get the answer right","You win money","A fixed time limit",5,"female","taking a break between the rounds ","no",1,0,0,0,0,1,0,0,0,0,0,0,0,0,0,0,0,0,0,0,0,1,3,0,0,1,0,1,0,0,1,3,2,0,2,3,3,0,2,0,2,3,3,0,0,0,0,3,2,1,0,1,2,3,3,1,1,1,0,2,1,3,4,"491.79999999701977","<div style=""color:green; font-size:75px;""><b>$0.02</b></div><br><br><br><br><table><tr><td><img src=static/images/oddball_up.png></td><td><img src=static/images/oddball_down.png></td><td><img src=static/images/oddball_up.png></td></tr></table>","87","1","","","","","","","","","","","","","","","","","",""
"","html-keyboard-response",142,419238,"0.0-6.0-1.29-1.29",74,18,FALSE,1665691244889,750,"q","q","Only if I get the answer right","You win money","A fixed time limit",5,"female","taking a break between the rounds ","no",1,0,0,0,0,1,0,0,0,0,0,0,0,0,0,0,0,0,0,0,0,1,3,0,0,1,0,1,0,0,1,3,2,0,2,3,3,0,2,0,2,3,3,0,0,0,0,3,2,1,0,1,2,3,3,1,1,1,0,2,1,3,4,"491.79999999701977","","w","","true","0","29","up","down","1","w","1","0","1665691665310","","","false","60","29","0.283333333333333","0.02","false"
"","html-keyboard-response",143,419743,"0.0-6.0-1.30-0.30",74,18,FALSE,1665691244889,750,"q","q","Only if I get the answer right","You win money","A fixed time limit",5,"female","taking a break between the rounds ","no",1,0,0,0,0,1,0,0,0,0,0,0,0,0,0,0,0,0,0,0,0,1,3,0,0,1,0,1,0,0,1,3,2,0,2,3,3,0,2,0,2,3,3,0,0,0,0,3,2,1,0,1,2,3,3,1,1,1,0,2,1,3,4,"504.90000000596046","<div style=""color:green; font-size:75px;""><b>$0.02</b></div><br><br><br><br><table><tr><td><img src=static/images/oddball_down.png></td><td><img src=static/images/oddball_up.png></td><td><img src=static/images/oddball_up.png></td></tr></table>","81","1","","","","","","","","","","","","","","","","","",""
"","html-keyboard-response",144,419856,"0.0-6.0-1.30-1.30",74,18,FALSE,1665691244889,750,"q","q","Only if I get the answer right","You win money","A fixed time limit",5,"female","taking a break between the rounds ","no",1,0,0,0,0,1,0,0,0,0,0,0,0,0,0,0,0,0,0,0,0,1,3,0,0,1,0,1,0,0,1,3,2,0,2,3,3,0,2,0,2,3,3,0,0,0,0,3,2,1,0,1,2,3,3,1,1,1,0,2,1,3,4,"504.90000000596046","","q","","true","0","30","up","down","0","q","1","0","1665691665928","","","false","60","30","0.3","0.02","false"
"","html-keyboard-response",145,420431,"0.0-6.0-1.31-0.31",74,18,FALSE,1665691244889,750,"q","q","Only if I get the answer right","You win money","A fixed time limit",5,"female","taking a break between the rounds ","no",1,0,0,0,0,1,0,0,0,0,0,0,0,0,0,0,0,0,0,0,0,1,3,0,0,1,0,1,0,0,1,3,2,0,2,3,3,0,2,0,2,3,3,0,0,0,0,3,2,1,0,1,2,3,3,1,1,1,0,2,1,3,4,"574.7999999970198","<div style=""color:green; font-size:75px;""><b>$0.02</b></div><br><br><br><br><table><tr><td><img src=static/images/oddball_down.png></td><td><img src=static/images/oddball_up.png></td><td><img src=static/images/oddball_up.png></td></tr></table>","81","1","","","","","","","","","","","","","","","","","",""
"","html-keyboard-response",146,420540,"0.0-6.0-1.31-1.31",74,18,FALSE,1665691244889,750,"q","q","Only if I get the answer right","You win money","A fixed time limit",5,"female","taking a break between the rounds ","no",1,0,0,0,0,1,0,0,0,0,0,0,0,0,0,0,0,0,0,0,0,1,3,0,0,1,0,1,0,0,1,3,2,0,2,3,3,0,2,0,2,3,3,0,0,0,0,3,2,1,0,1,2,3,3,1,1,1,0,2,1,3,4,"574.7999999970198","","q","","true","0","31","up","down","0","q","1","0","1665691666612","","","false","60","31","0.316666666666667","0.02","false"
"","html-keyboard-response",147,421143,"0.0-6.0-1.32-0.32",74,18,FALSE,1665691244889,750,"q","q","Only if I get the answer right","You win money","A fixed time limit",5,"female","taking a break between the rounds ","no",1,0,0,0,0,1,0,0,0,0,0,0,0,0,0,0,0,0,0,0,0,1,3,0,0,1,0,1,0,0,1,3,2,0,2,3,3,0,2,0,2,3,3,0,0,0,0,3,2,1,0,1,2,3,3,1,1,1,0,2,1,3,4,"603.1000000014901","<div style=""color:green; font-size:75px;""><b>$0.02</b></div><br><br><br><br><table><tr><td><img src=static/images/oddball_down.png></td><td><img src=static/images/oddball_up.png></td><td><img src=static/images/oddball_up.png></td></tr></table>","81","1","","","","","","","","","","","","","","","","","",""
"","html-keyboard-response",148,421257,"0.0-6.0-1.32-1.32",74,18,FALSE,1665691244889,750,"q","q","Only if I get the answer right","You win money","A fixed time limit",5,"female","taking a break between the rounds ","no",1,0,0,0,0,1,0,0,0,0,0,0,0,0,0,0,0,0,0,0,0,1,3,0,0,1,0,1,0,0,1,3,2,0,2,3,3,0,2,0,2,3,3,0,0,0,0,3,2,1,0,1,2,3,3,1,1,1,0,2,1,3,4,"603.1000000014901","","q","","true","0","32","up","down","0","q","1","0","1665691667329","","","false","60","32","0.333333333333333","0.02","false"
"","html-keyboard-response",149,421928,"0.0-6.0-1.33-0.33",74,18,FALSE,1665691244889,750,"q","q","Only if I get the answer right","You win money","A fixed time limit",5,"female","taking a break between the rounds ","no",1,0,0,0,0,1,0,0,0,0,0,0,0,0,0,0,0,0,0,0,0,1,3,0,0,1,0,1,0,0,1,3,2,0,2,3,3,0,2,0,2,3,3,0,0,0,0,3,2,1,0,1,2,3,3,1,1,1,0,2,1,3,4,"669.3999999985099","<div style=""color:green; font-size:75px;""><b>$0.02</b></div><br><br><br><br><table><tr><td><img src=static/images/oddball_up.png></td><td><img src=static/images/oddball_down.png></td><td><img src=static/images/oddball_down.png></td></tr></table>","81","1","","","","","","","","","","","","","","","","","",""
"","html-keyboard-response",150,422043,"0.0-6.0-1.33-1.33",74,18,FALSE,1665691244889,750,"q","q","Only if I get the answer right","You win money","A fixed time limit",5,"female","taking a break between the rounds ","no",1,0,0,0,0,1,0,0,0,0,0,0,0,0,0,0,0,0,0,0,0,1,3,0,0,1,0,1,0,0,1,3,2,0,2,3,3,0,2,0,2,3,3,0,0,0,0,3,2,1,0,1,2,3,3,1,1,1,0,2,1,3,4,"669.3999999985099","","q","","true","0","33","down","up","0","q","1","0","1665691668115","","","false","60","33","0.35","0.02","false"
"","html-keyboard-response",151,422631,"0.0-6.0-1.34-0.34",74,18,FALSE,1665691244889,750,"q","q","Only if I get the answer right","You win money","A fixed time limit",5,"female","taking a break between the rounds ","no",1,0,0,0,0,1,0,0,0,0,0,0,0,0,0,0,0,0,0,0,0,1,3,0,0,1,0,1,0,0,1,3,2,0,2,3,3,0,2,0,2,3,3,0,0,0,0,3,2,1,0,1,2,3,3,1,1,1,0,2,1,3,4,"587.6000000014901","<div style=""color:green; font-size:75px;""><b>$0.02</b></div><br><br><br><br><table><tr><td><img src=static/images/oddball_down.png></td><td><img src=static/images/oddball_up.png></td><td><img src=static/images/oddball_up.png></td></tr></table>","81","1","","","","","","","","","","","","","","","","","",""
"","html-keyboard-response",152,422744,"0.0-6.0-1.34-1.34",74,18,FALSE,1665691244889,750,"q","q","Only if I get the answer right","You win money","A fixed time limit",5,"female","taking a break between the rounds ","no",1,0,0,0,0,1,0,0,0,0,0,0,0,0,0,0,0,0,0,0,0,1,3,0,0,1,0,1,0,0,1,3,2,0,2,3,3,0,2,0,2,3,3,0,0,0,0,3,2,1,0,1,2,3,3,1,1,1,0,2,1,3,4,"587.6000000014901","","q","","true","0","34","up","down","0","q","1","0","1665691668816","","","false","60","34","0.366666666666667","0.02","false"
"","html-keyboard-response",153,423279,"0.0-6.0-1.35-0.35",74,18,FALSE,1665691244889,750,"q","q","Only if I get the answer right","You win money","A fixed time limit",5,"female","taking a break between the rounds ","no",1,0,0,0,0,1,0,0,0,0,0,0,0,0,0,0,0,0,0,0,0,1,3,0,0,1,0,1,0,0,1,3,2,0,2,3,3,0,2,0,2,3,3,0,0,0,0,3,2,1,0,1,2,3,3,1,1,1,0,2,1,3,4,"534.6999999955297","<div style=""color:green; font-size:75px;""><b>$0.02</b></div><br><br><br><br><table><tr><td><img src=static/images/oddball_up.png></td><td><img src=static/images/oddball_up.png></td><td><img src=static/images/oddball_down.png></td></tr></table>","69","1","","","","","","","","","","","","","","","","","",""
"","html-keyboard-response",154,423394,"0.0-6.0-1.35-1.35",74,18,FALSE,1665691244889,750,"q","q","Only if I get the answer right","You win money","A fixed time limit",5,"female","taking a break between the rounds ","no",1,0,0,0,0,1,0,0,0,0,0,0,0,0,0,0,0,0,0,0,0,1,3,0,0,1,0,1,0,0,1,3,2,0,2,3,3,0,2,0,2,3,3,0,0,0,0,3,2,1,0,1,2,3,3,1,1,1,0,2,1,3,4,"534.6999999955297","","e","","true","0","35","up","down","2","e","1","0","1665691669466","","","false","60","35","0.383333333333333","0.02","false"
"","html-keyboard-response",155,423919,"0.0-6.0-1.36-0.36",74,18,FALSE,1665691244889,750,"q","q","Only if I get the answer right","You win money","A fixed time limit",5,"female","taking a break between the rounds ","no",1,0,0,0,0,1,0,0,0,0,0,0,0,0,0,0,0,0,0,0,0,1,3,0,0,1,0,1,0,0,1,3,2,0,2,3,3,0,2,0,2,3,3,0,0,0,0,3,2,1,0,1,2,3,3,1,1,1,0,2,1,3,4,"524.7000000029802","<div style=""color:green; font-size:75px;""><b>$0.02</b></div><br><br><br><br><table><tr><td><img src=static/images/oddball_up.png></td><td><img src=static/images/oddball_down.png></td><td><img src=static/images/oddball_down.png></td></tr></table>","81","1","","","","","","","","","","","","","","","","","",""
"","html-keyboard-response",156,424023,"0.0-6.0-1.36-1.36",74,18,FALSE,1665691244889,750,"q","q","Only if I get the answer right","You win money","A fixed time limit",5,"female","taking a break between the rounds ","no",1,0,0,0,0,1,0,0,0,0,0,0,0,0,0,0,0,0,0,0,0,1,3,0,0,1,0,1,0,0,1,3,2,0,2,3,3,0,2,0,2,3,3,0,0,0,0,3,2,1,0,1,2,3,3,1,1,1,0,2,1,3,4,"524.7000000029802","","q","","true","0","36","down","up","0","q","1","0","1665691670095","","","false","60","36","0.4","0.02","false"
"","html-keyboard-response",157,424519,"0.0-6.0-1.37-0.37",74,18,FALSE,1665691244889,750,"q","q","Only if I get the answer right","You win money","A fixed time limit",5,"female","taking a break between the rounds ","no",1,0,0,0,0,1,0,0,0,0,0,0,0,0,0,0,0,0,0,0,0,1,3,0,0,1,0,1,0,0,1,3,2,0,2,3,3,0,2,0,2,3,3,0,0,0,0,3,2,1,0,1,2,3,3,1,1,1,0,2,1,3,4,"495.30000000447035","<div style=""color:green; font-size:75px;""><b>$0.02</b></div><br><br><br><br><table><tr><td><img src=static/images/oddball_up.png></td><td><img src=static/images/oddball_down.png></td><td><img src=static/images/oddball_up.png></td></tr></table>","87","1","","","","","","","","","","","","","","","","","",""
"","html-keyboard-response",158,424631,"0.0-6.0-1.37-1.37",74,18,FALSE,1665691244889,750,"q","q","Only if I get the answer right","You win money","A fixed time limit",5,"female","taking a break between the rounds ","no",1,0,0,0,0,1,0,0,0,0,0,0,0,0,0,0,0,0,0,0,0,1,3,0,0,1,0,1,0,0,1,3,2,0,2,3,3,0,2,0,2,3,3,0,0,0,0,3,2,1,0,1,2,3,3,1,1,1,0,2,1,3,4,"495.30000000447035","","w","","true","0","37","up","down","1","w","1","0","1665691670703","","","false","60","37","0.416666666666667","0.02","false"
"","html-keyboard-response",159,425207,"0.0-6.0-1.38-0.38",74,18,FALSE,1665691244889,750,"q","q","Only if I get the answer right","You win money","A fixed time limit",5,"female","taking a break between the rounds ","no",1,0,0,0,0,1,0,0,0,0,0,0,0,0,0,0,0,0,0,0,0,1,3,0,0,1,0,1,0,0,1,3,2,0,2,3,3,0,2,0,2,3,3,0,0,0,0,3,2,1,0,1,2,3,3,1,1,1,0,2,1,3,4,"575.6000000014901","<div style=""color:green; font-size:75px;""><b>$0.02</b></div><br><br><br><br><table><tr><td><img src=static/images/oddball_down.png></td><td><img src=static/images/oddball_down.png></td><td><img src=static/images/oddball_up.png></td></tr></table>","69","1","","","","","","","","","","","","","","","","","",""
"","html-keyboard-response",160,425315,"0.0-6.0-1.38-1.38",74,18,FALSE,1665691244889,750,"q","q","Only if I get the answer right","You win money","A fixed time limit",5,"female","taking a break between the rounds ","no",1,0,0,0,0,1,0,0,0,0,0,0,0,0,0,0,0,0,0,0,0,1,3,0,0,1,0,1,0,0,1,3,2,0,2,3,3,0,2,0,2,3,3,0,0,0,0,3,2,1,0,1,2,3,3,1,1,1,0,2,1,3,4,"575.6000000014901","","e","","true","0","38","down","up","2","e","1","0","1665691671387","","","false","60","38","0.433333333333333","0.02","false"
"","html-keyboard-response",161,425791,"0.0-6.0-1.39-0.39",74,18,FALSE,1665691244889,750,"q","q","Only if I get the answer right","You win money","A fixed time limit",5,"female","taking a break between the rounds ","no",1,0,0,0,0,1,0,0,0,0,0,0,0,0,0,0,0,0,0,0,0,1,3,0,0,1,0,1,0,0,1,3,2,0,2,3,3,0,2,0,2,3,3,0,0,0,0,3,2,1,0,1,2,3,3,1,1,1,0,2,1,3,4,"475.1000000014901","<div style=""color:green; font-size:75px;""><b>$0.02</b></div><br><br><br><br><table><tr><td><img src=static/images/oddball_down.png></td><td><img src=static/images/oddball_up.png></td><td><img src=static/images/oddball_up.png></td></tr></table>","81","1","","","","","","","","","","","","","","","","","",""
"","html-keyboard-response",162,425900,"0.0-6.0-1.39-1.39",74,18,FALSE,1665691244889,750,"q","q","Only if I get the answer right","You win money","A fixed time limit",5,"female","taking a break between the rounds ","no",1,0,0,0,0,1,0,0,0,0,0,0,0,0,0,0,0,0,0,0,0,1,3,0,0,1,0,1,0,0,1,3,2,0,2,3,3,0,2,0,2,3,3,0,0,0,0,3,2,1,0,1,2,3,3,1,1,1,0,2,1,3,4,"475.1000000014901","","q","","true","0","39","up","down","0","q","1","0","1665691671972","","","false","60","39","0.45","0.02","false"
"","html-keyboard-response",163,426656,"0.0-6.0-1.40-0.40",74,18,FALSE,1665691244889,750,"q","q","Only if I get the answer right","You win money","A fixed time limit",5,"female","taking a break between the rounds ","no",1,0,0,0,0,1,0,0,0,0,0,0,0,0,0,0,0,0,0,0,0,1,3,0,0,1,0,1,0,0,1,3,2,0,2,3,3,0,2,0,2,3,3,0,0,0,0,3,2,1,0,1,2,3,3,1,1,1,0,2,1,3,4,"null","<div style=""color:green; font-size:75px;""><b>$0.02</b></div><br><br><br><br><table><tr><td><img src=static/images/oddball_up.png></td><td><img src=static/images/oddball_up.png></td><td><img src=static/images/oddball_down.png></td></tr></table>","null","","","","","","","","","","","","","","","","","","",""
"","html-keyboard-response",164,426772,"0.0-6.0-1.40-1.40",74,18,FALSE,1665691244889,750,"q","q","Only if I get the answer right","You win money","A fixed time limit",5,"female","taking a break between the rounds ","no",1,0,0,0,0,1,0,0,0,0,0,0,0,0,0,0,0,0,0,0,0,1,3,0,0,1,0,1,0,0,1,3,2,0,2,3,3,0,2,0,2,3,3,0,0,0,0,3,2,1,0,1,2,3,3,1,1,1,0,2,1,3,4,"null","","null","","true","0","40","up","down","2","e","0","0","1665691672844","","","false","60","40","0.466666666666667","0.02","true"
"","html-keyboard-response",165,427526,"0.0-6.0-1.41-0.41",74,18,FALSE,1665691244889,750,"q","q","Only if I get the answer right","You win money","A fixed time limit",5,"female","taking a break between the rounds ","no",1,0,0,0,0,1,0,0,0,0,0,0,0,0,0,0,0,0,0,0,0,1,3,0,0,1,0,1,0,0,1,3,2,0,2,3,3,0,2,0,2,3,3,0,0,0,0,3,2,1,0,1,2,3,3,1,1,1,0,2,1,3,4,"null","<div style=""color:green; font-size:75px;""><b>$0.02</b></div><br><br><br><br><table><tr><td><img src=static/images/oddball_up.png></td><td><img src=static/images/oddball_down.png></td><td><img src=static/images/oddball_up.png></td></tr></table>","null","","","","","","","","","","","","","","","","","","",""
"","html-keyboard-response",166,427640,"0.0-6.0-1.41-1.41",74,18,FALSE,1665691244889,750,"q","q","Only if I get the answer right","You win money","A fixed time limit",5,"female","taking a break between the rounds ","no",1,0,0,0,0,1,0,0,0,0,0,0,0,0,0,0,0,0,0,0,0,1,3,0,0,1,0,1,0,0,1,3,2,0,2,3,3,0,2,0,2,3,3,0,0,0,0,3,2,1,0,1,2,3,3,1,1,1,0,2,1,3,4,"null","","null","","true","0","41","up","down","1","w","0","0","1665691673713","","","false","60","41","0.466666666666667","0.02","true"
"","html-keyboard-response",167,428215,"0.0-6.0-1.42-0.42",74,18,FALSE,1665691244889,750,"q","q","Only if I get the answer right","You win money","A fixed time limit",5,"female","taking a break between the rounds ","no",1,0,0,0,0,1,0,0,0,0,0,0,0,0,0,0,0,0,0,0,0,1,3,0,0,1,0,1,0,0,1,3,2,0,2,3,3,0,2,0,2,3,3,0,0,0,0,3,2,1,0,1,2,3,3,1,1,1,0,2,1,3,4,"574.3000000044703","<div style=""color:green; font-size:75px;""><b>$0.02</b></div><br><br><br><br><table><tr><td><img src=static/images/oddball_up.png></td><td><img src=static/images/oddball_down.png></td><td><img src=static/images/oddball_up.png></td></tr></table>","87","1","","","","","","","","","","","","","","","","","",""
"","html-keyboard-response",168,428321,"0.0-6.0-1.42-1.42",74,18,FALSE,1665691244889,750,"q","q","Only if I get the answer right","You win money","A fixed time limit",5,"female","taking a break between the rounds ","no",1,0,0,0,0,1,0,0,0,0,0,0,0,0,0,0,0,0,0,0,0,1,3,0,0,1,0,1,0,0,1,3,2,0,2,3,3,0,2,0,2,3,3,0,0,0,0,3,2,1,0,1,2,3,3,1,1,1,0,2,1,3,4,"574.3000000044703","","w","","true","0","42","up","down","1","w","1","0","1665691674393","","","false","60","42","0.466666666666667","0.02","false"
"","html-keyboard-response",169,428792,"0.0-6.0-1.43-0.43",74,18,FALSE,1665691244889,750,"q","q","Only if I get the answer right","You win money","A fixed time limit",5,"female","taking a break between the rounds ","no",1,0,0,0,0,1,0,0,0,0,0,0,0,0,0,0,0,0,0,0,0,1,3,0,0,1,0,1,0,0,1,3,2,0,2,3,3,0,2,0,2,3,3,0,0,0,0,3,2,1,0,1,2,3,3,1,1,1,0,2,1,3,4,"469.90000000596046","<div style=""color:green; font-size:75px;""><b>$0.02</b></div><br><br><br><br><table><tr><td><img src=static/images/oddball_up.png></td><td><img src=static/images/oddball_down.png></td><td><img src=static/images/oddball_up.png></td></tr></table>","87","1","","","","","","","","","","","","","","","","","",""
"","html-keyboard-response",170,428908,"0.0-6.0-1.43-1.43",74,18,FALSE,1665691244889,750,"q","q","Only if I get the answer right","You win money","A fixed time limit",5,"female","taking a break between the rounds ","no",1,0,0,0,0,1,0,0,0,0,0,0,0,0,0,0,0,0,0,0,0,1,3,0,0,1,0,1,0,0,1,3,2,0,2,3,3,0,2,0,2,3,3,0,0,0,0,3,2,1,0,1,2,3,3,1,1,1,0,2,1,3,4,"469.90000000596046","","w","","true","0","43","up","down","1","w","1","0","1665691674980","","","false","60","43","0.483333333333333","0.02","false"
"","html-keyboard-response",171,429344,"0.0-6.0-1.44-0.44",74,18,FALSE,1665691244889,750,"q","q","Only if I get the answer right","You win money","A fixed time limit",5,"female","taking a break between the rounds ","no",1,0,0,0,0,1,0,0,0,0,0,0,0,0,0,0,0,0,0,0,0,1,3,0,0,1,0,1,0,0,1,3,2,0,2,3,3,0,2,0,2,3,3,0,0,0,0,3,2,1,0,1,2,3,3,1,1,1,0,2,1,3,4,"435.09999999403954","<div style=""color:green; font-size:75px;""><b>$0.02</b></div><br><br><br><br><table><tr><td><img src=static/images/oddball_up.png></td><td><img src=static/images/oddball_down.png></td><td><img src=static/images/oddball_up.png></td></tr></table>","87","1","","","","","","","","","","","","","","","","","",""
"","html-keyboard-response",172,429456,"0.0-6.0-1.44-1.44",74,18,FALSE,1665691244889,750,"q","q","Only if I get the answer right","You win money","A fixed time limit",5,"female","taking a break between the rounds ","no",1,0,0,0,0,1,0,0,0,0,0,0,0,0,0,0,0,0,0,0,0,1,3,0,0,1,0,1,0,0,1,3,2,0,2,3,3,0,2,0,2,3,3,0,0,0,0,3,2,1,0,1,2,3,3,1,1,1,0,2,1,3,4,"435.09999999403954","","w","","true","0","44","up","down","1","w","1","0","1665691675528","","","false","60","44","0.5","0.02","false"
"","html-keyboard-response",173,429943,"0.0-6.0-1.45-0.45",74,18,FALSE,1665691244889,750,"q","q","Only if I get the answer right","You win money","A fixed time limit",5,"female","taking a break between the rounds ","no",1,0,0,0,0,1,0,0,0,0,0,0,0,0,0,0,0,0,0,0,0,1,3,0,0,1,0,1,0,0,1,3,2,0,2,3,3,0,2,0,2,3,3,0,0,0,0,3,2,1,0,1,2,3,3,1,1,1,0,2,1,3,4,"486.6000000014901","<div style=""color:green; font-size:75px;""><b>$0.02</b></div><br><br><br><br><table><tr><td><img src=static/images/oddball_down.png></td><td><img src=static/images/oddball_down.png></td><td><img src=static/images/oddball_up.png></td></tr></table>","69","1","","","","","","","","","","","","","","","","","",""
"","html-keyboard-response",174,430059,"0.0-6.0-1.45-1.45",74,18,FALSE,1665691244889,750,"q","q","Only if I get the answer right","You win money","A fixed time limit",5,"female","taking a break between the rounds ","no",1,0,0,0,0,1,0,0,0,0,0,0,0,0,0,0,0,0,0,0,0,1,3,0,0,1,0,1,0,0,1,3,2,0,2,3,3,0,2,0,2,3,3,0,0,0,0,3,2,1,0,1,2,3,3,1,1,1,0,2,1,3,4,"486.6000000014901","","e","","true","0","45","down","up","2","e","1","0","1665691676131","","","false","60","45","0.516666666666667","0.02","false"
"","html-keyboard-response",175,430768,"0.0-6.0-1.46-0.46",74,18,FALSE,1665691244889,750,"q","q","Only if I get the answer right","You win money","A fixed time limit",5,"female","taking a break between the rounds ","no",1,0,0,0,0,1,0,0,0,0,0,0,0,0,0,0,0,0,0,0,0,1,3,0,0,1,0,1,0,0,1,3,2,0,2,3,3,0,2,0,2,3,3,0,0,0,0,3,2,1,0,1,2,3,3,1,1,1,0,2,1,3,4,"708.7999999970198","<div style=""color:green; font-size:75px;""><b>$0.02</b></div><br><br><br><br><table><tr><td><img src=static/images/oddball_down.png></td><td><img src=static/images/oddball_up.png></td><td><img src=static/images/oddball_down.png></td></tr></table>","87","1","","","","","","","","","","","","","","","","","",""
"","html-keyboard-response",176,430876,"0.0-6.0-1.46-1.46",74,18,FALSE,1665691244889,750,"q","q","Only if I get the answer right","You win money","A fixed time limit",5,"female","taking a break between the rounds ","no",1,0,0,0,0,1,0,0,0,0,0,0,0,0,0,0,0,0,0,0,0,1,3,0,0,1,0,1,0,0,1,3,2,0,2,3,3,0,2,0,2,3,3,0,0,0,0,3,2,1,0,1,2,3,3,1,1,1,0,2,1,3,4,"708.7999999970198","","w","","true","0","46","down","up","1","w","1","0","1665691676948","","","false","60","46","0.533333333333333","0.02","false"
"","html-keyboard-response",177,431343,"0.0-6.0-1.47-0.47",74,18,FALSE,1665691244889,750,"q","q","Only if I get the answer right","You win money","A fixed time limit",5,"female","taking a break between the rounds ","no",1,0,0,0,0,1,0,0,0,0,0,0,0,0,0,0,0,0,0,0,0,1,3,0,0,1,0,1,0,0,1,3,2,0,2,3,3,0,2,0,2,3,3,0,0,0,0,3,2,1,0,1,2,3,3,1,1,1,0,2,1,3,4,"466.90000000596046","<div style=""color:green; font-size:75px;""><b>$0.02</b></div><br><br><br><br><table><tr><td><img src=static/images/oddball_down.png></td><td><img src=static/images/oddball_up.png></td><td><img src=static/images/oddball_down.png></td></tr></table>","87","1","","","","","","","","","","","","","","","","","",""
"","html-keyboard-response",178,431459,"0.0-6.0-1.47-1.47",74,18,FALSE,1665691244889,750,"q","q","Only if I get the answer right","You win money","A fixed time limit",5,"female","taking a break between the rounds ","no",1,0,0,0,0,1,0,0,0,0,0,0,0,0,0,0,0,0,0,0,0,1,3,0,0,1,0,1,0,0,1,3,2,0,2,3,3,0,2,0,2,3,3,0,0,0,0,3,2,1,0,1,2,3,3,1,1,1,0,2,1,3,4,"466.90000000596046","","w","","true","0","47","down","up","1","w","1","0","1665691677531","","","false","60","47","0.533333333333333","0.02","false"
"","html-keyboard-response",179,432071,"0.0-6.0-1.48-0.48",74,18,FALSE,1665691244889,750,"q","q","Only if I get the answer right","You win money","A fixed time limit",5,"female","taking a break between the rounds ","no",1,0,0,0,0,1,0,0,0,0,0,0,0,0,0,0,0,0,0,0,0,1,3,0,0,1,0,1,0,0,1,3,2,0,2,3,3,0,2,0,2,3,3,0,0,0,0,3,2,1,0,1,2,3,3,1,1,1,0,2,1,3,4,"611.6999999955297","<div style=""color:green; font-size:75px;""><b>$0.02</b></div><br><br><br><br><table><tr><td><img src=static/images/oddball_down.png></td><td><img src=static/images/oddball_up.png></td><td><img src=static/images/oddball_up.png></td></tr></table>","81","1","","","","","","","","","","","","","","","","","",""
"","html-keyboard-response",180,432178,"0.0-6.0-1.48-1.48",74,18,FALSE,1665691244889,750,"q","q","Only if I get the answer right","You win money","A fixed time limit",5,"female","taking a break between the rounds ","no",1,0,0,0,0,1,0,0,0,0,0,0,0,0,0,0,0,0,0,0,0,1,3,0,0,1,0,1,0,0,1,3,2,0,2,3,3,0,2,0,2,3,3,0,0,0,0,3,2,1,0,1,2,3,3,1,1,1,0,2,1,3,4,"611.6999999955297","","q","","true","0","48","up","down","0","q","1","0","1665691678250","","","false","60","48","0.55","0.02","false"
