"success","trial_type","trial_index","time_elapsed","internal_node_id","subject","age","sex","date","deadline","instQ1","instQ2","instQ3","instQ4","instQ5","totalInstQ","gender","strategy","comments","DASS1_s","DASS2_a","DASS3_d","DASS4_a","DASS5_d","DASS6_s","DASS7_a","DASS8_s","DASS9_a","DASS10_d","DASS11_s","DASS12_s","DASS13_d","DASS14_s","DASS15_a","DASS16_d","DASS17_d","DASS18_s","DASS19_a","DASS20_a","DASS21_d","BB1","BB2","BB3","BB4","BB5","BB6","BB7","BB8","BB9","BB10","BB11","BB12","BB13","BB14","BB15","BB16","BB17","BB18","BB19","BB20","BB21","BB22","BB23","BB24","NFC1","NFC2","NFC3","NFC4","NFC5","NFC6","NFC7","NFC8","NFC9","NFC10","NFC11","NFC12","NFC13","NFC14","NFC15","NFC16","NFC17","NFC18","rt","stimulus","key_press","npress","isDataTrial","block","trialinblock","common","odd","oddidx","correct_ans","accuracy","totalTokens","timestamp","responses","question_order","showprog","blocklen","trial","progress","reward","timedout"
"true","fullscreen",0,5734,"0.0-0.0",62,22,FALSE,1665500693807,750,"q","q","Only if I get the answer right","You win money","A fixed time limit",5,"female","Relaxing the eyes during task, taking time between breaks ","no",1,0,0,0,0,1,2,1,0,0,0,0,0,0,0,0,0,0,0,0,0,0,2,1,0,2,0,1,1,2,3,0,2,0,2,3,1,0,1,0,2,3,2,1,0,3,3,1,0,0,3,1,1,1,4,4,0,3,4,3,1,1,3,"","","","","","","","","","","","","","","","","","","","","",""
"","image-keyboard-response",1,11009,"0.0-1.0-0.0",62,22,FALSE,1665500693807,750,"q","q","Only if I get the answer right","You win money","A fixed time limit",5,"female","Relaxing the eyes during task, taking time between breaks ","no",1,0,0,0,0,1,2,1,0,0,0,0,0,0,0,0,0,0,0,0,0,0,2,1,0,2,0,1,1,2,3,0,2,0,2,3,1,0,1,0,2,3,2,1,0,3,3,1,0,0,3,1,1,1,4,4,0,3,4,3,1,1,3,"4948","static/images/instructions/Slide1.png","39","","","","","","","","","","","","","","","","","","",""
"","image-keyboard-response",2,14434,"0.0-1.1-0.1",62,22,FALSE,1665500693807,750,"q","q","Only if I get the answer right","You win money","A fixed time limit",5,"female","Relaxing the eyes during task, taking time between breaks ","no",1,0,0,0,0,1,2,1,0,0,0,0,0,0,0,0,0,0,0,0,0,0,2,1,0,2,0,1,1,2,3,0,2,0,2,3,1,0,1,0,2,3,2,1,0,3,3,1,0,0,3,1,1,1,4,4,0,3,4,3,1,1,3,"3424.5999999046326","static/images/instructions/Slide2.png","39","","","","","","","","","","","","","","","","","","",""
"","image-keyboard-response",3,17305,"0.0-1.2-0.2",62,22,FALSE,1665500693807,750,"q","q","Only if I get the answer right","You win money","A fixed time limit",5,"female","Relaxing the eyes during task, taking time between breaks ","no",1,0,0,0,0,1,2,1,0,0,0,0,0,0,0,0,0,0,0,0,0,0,2,1,0,2,0,1,1,2,3,0,2,0,2,3,1,0,1,0,2,3,2,1,0,3,3,1,0,0,3,1,1,1,4,4,0,3,4,3,1,1,3,"2870.5999999046326","static/images/instructions/Slide3.png","39","","","","","","","","","","","","","","","","","","",""
"","image-keyboard-response",4,19121,"0.0-1.3-0.3",62,22,FALSE,1665500693807,750,"q","q","Only if I get the answer right","You win money","A fixed time limit",5,"female","Relaxing the eyes during task, taking time between breaks ","no",1,0,0,0,0,1,2,1,0,0,0,0,0,0,0,0,0,0,0,0,0,0,2,1,0,2,0,1,1,2,3,0,2,0,2,3,1,0,1,0,2,3,2,1,0,3,3,1,0,0,3,1,1,1,4,4,0,3,4,3,1,1,3,"1815.1000001430511","static/images/instructions/Slide4.png","39","","","","","","","","","","","","","","","","","","",""
"","image-keyboard-response",5,22018,"0.0-1.4-0.4",62,22,FALSE,1665500693807,750,"q","q","Only if I get the answer right","You win money","A fixed time limit",5,"female","Relaxing the eyes during task, taking time between breaks ","no",1,0,0,0,0,1,2,1,0,0,0,0,0,0,0,0,0,0,0,0,0,0,2,1,0,2,0,1,1,2,3,0,2,0,2,3,1,0,1,0,2,3,2,1,0,3,3,1,0,0,3,1,1,1,4,4,0,3,4,3,1,1,3,"2895.7000000476837","static/images/instructions/Slide5.png","39","","","","","","","","","","","","","","","","","","",""
"","image-keyboard-response",6,23234,"0.0-1.5-0.5",62,22,FALSE,1665500693807,750,"q","q","Only if I get the answer right","You win money","A fixed time limit",5,"female","Relaxing the eyes during task, taking time between breaks ","no",1,0,0,0,0,1,2,1,0,0,0,0,0,0,0,0,0,0,0,0,0,0,2,1,0,2,0,1,1,2,3,0,2,0,2,3,1,0,1,0,2,3,2,1,0,3,3,1,0,0,3,1,1,1,4,4,0,3,4,3,1,1,3,"1215.2999999523163","static/images/instructions/Slide6.png","39","","","","","","","","","","","","","","","","","","",""
"","image-keyboard-response",7,98824,"0.0-1.6-0.6",62,22,FALSE,1665500693807,750,"q","q","Only if I get the answer right","You win money","A fixed time limit",5,"female","Relaxing the eyes during task, taking time between breaks ","no",1,0,0,0,0,1,2,1,0,0,0,0,0,0,0,0,0,0,0,0,0,0,2,1,0,2,0,1,1,2,3,0,2,0,2,3,1,0,1,0,2,3,2,1,0,3,3,1,0,0,3,1,1,1,4,4,0,3,4,3,1,1,3,"75591.79999995232","static/images/instructions/Slide7.png","39","","","","","","","","","","","","","","","","","","",""
"","html-keyboard-response",8,99864,"0.0-2.0-0.0",62,22,FALSE,1665500693807,750,"q","q","Only if I get the answer right","You win money","A fixed time limit",5,"female","Relaxing the eyes during task, taking time between breaks ","no",1,0,0,0,0,1,2,1,0,0,0,0,0,0,0,0,0,0,0,0,0,0,2,1,0,2,0,1,1,2,3,0,2,0,2,3,1,0,1,0,2,3,2,1,0,3,3,1,0,0,3,1,1,1,4,4,0,3,4,3,1,1,3,"1037.7000000476837","<br><br><br><br><table><tr><td><img src=static/images/oddball_up.png></td><td><img src=static/images/oddball_down.png></td><td><img src=static/images/oddball_down.png></td></tr></table>","81","1","","","","","","","","","","","","","","","","","",""
"","html-keyboard-response",9,102375,"0.0-2.0-1.0",62,22,FALSE,1665500693807,750,"q","q","Only if I get the answer right","You win money","A fixed time limit",5,"female","Relaxing the eyes during task, taking time between breaks ","no",1,0,0,0,0,1,2,1,0,0,0,0,0,0,0,0,0,0,0,0,0,0,2,1,0,2,0,1,1,2,3,0,2,0,2,3,1,0,1,0,2,3,2,1,0,3,3,1,0,0,3,1,1,1,4,4,0,3,4,3,1,1,3,"null","<div style=""font-size:75px;""><b>Correct</b></div>","null","","","","","","","","","","","","","","","","","","",""
"","html-keyboard-response",10,103388,"0.0-2.0-2.0",62,22,FALSE,1665500693807,750,"q","q","Only if I get the answer right","You win money","A fixed time limit",5,"female","Relaxing the eyes during task, taking time between breaks ","no",1,0,0,0,0,1,2,1,0,0,0,0,0,0,0,0,0,0,0,0,0,0,2,1,0,2,0,1,1,2,3,0,2,0,2,3,1,0,1,0,2,3,2,1,0,3,3,1,0,0,3,1,1,1,4,4,0,3,4,3,1,1,3,"1037.7000000476837","","q","","true","practice","0","down","up","0","q","1","0","1665500798177","","","","","","","",""
"","html-keyboard-response",11,104328,"0.0-2.1-0.1",62,22,FALSE,1665500693807,750,"q","q","Only if I get the answer right","You win money","A fixed time limit",5,"female","Relaxing the eyes during task, taking time between breaks ","no",1,0,0,0,0,1,2,1,0,0,0,0,0,0,0,0,0,0,0,0,0,0,2,1,0,2,0,1,1,2,3,0,2,0,2,3,1,0,1,0,2,3,2,1,0,3,3,1,0,0,3,1,1,1,4,4,0,3,4,3,1,1,3,"939","<br><br><br><br><table><tr><td><img src=static/images/oddball_down.png></td><td><img src=static/images/oddball_up.png></td><td><img src=static/images/oddball_up.png></td></tr></table>","81","1","","","","","","","","","","","","","","","","","",""
"","html-keyboard-response",12,106840,"0.0-2.1-1.1",62,22,FALSE,1665500693807,750,"q","q","Only if I get the answer right","You win money","A fixed time limit",5,"female","Relaxing the eyes during task, taking time between breaks ","no",1,0,0,0,0,1,2,1,0,0,0,0,0,0,0,0,0,0,0,0,0,0,2,1,0,2,0,1,1,2,3,0,2,0,2,3,1,0,1,0,2,3,2,1,0,3,3,1,0,0,3,1,1,1,4,4,0,3,4,3,1,1,3,"null","<div style=""font-size:75px;""><b>Correct</b></div>","null","","","","","","","","","","","","","","","","","","",""
"","html-keyboard-response",13,107846,"0.0-2.1-2.1",62,22,FALSE,1665500693807,750,"q","q","Only if I get the answer right","You win money","A fixed time limit",5,"female","Relaxing the eyes during task, taking time between breaks ","no",1,0,0,0,0,1,2,1,0,0,0,0,0,0,0,0,0,0,0,0,0,0,2,1,0,2,0,1,1,2,3,0,2,0,2,3,1,0,1,0,2,3,2,1,0,3,3,1,0,0,3,1,1,1,4,4,0,3,4,3,1,1,3,"939","","q","","true","practice","1","up","down","0","q","1","0","1665500802634","","","","","","","",""
"","html-keyboard-response",14,108304,"0.0-2.2-0.2",62,22,FALSE,1665500693807,750,"q","q","Only if I get the answer right","You win money","A fixed time limit",5,"female","Relaxing the eyes during task, taking time between breaks ","no",1,0,0,0,0,1,2,1,0,0,0,0,0,0,0,0,0,0,0,0,0,0,2,1,0,2,0,1,1,2,3,0,2,0,2,3,1,0,1,0,2,3,2,1,0,3,3,1,0,0,3,1,1,1,4,4,0,3,4,3,1,1,3,"456.90000009536743","<br><br><br><br><table><tr><td><img src=static/images/oddball_down.png></td><td><img src=static/images/oddball_up.png></td><td><img src=static/images/oddball_up.png></td></tr></table>","81","1","","","","","","","","","","","","","","","","","",""
"","html-keyboard-response",15,110816,"0.0-2.2-1.2",62,22,FALSE,1665500693807,750,"q","q","Only if I get the answer right","You win money","A fixed time limit",5,"female","Relaxing the eyes during task, taking time between breaks ","no",1,0,0,0,0,1,2,1,0,0,0,0,0,0,0,0,0,0,0,0,0,0,2,1,0,2,0,1,1,2,3,0,2,0,2,3,1,0,1,0,2,3,2,1,0,3,3,1,0,0,3,1,1,1,4,4,0,3,4,3,1,1,3,"null","<div style=""font-size:75px;""><b>Correct</b></div>","null","","","","","","","","","","","","","","","","","","",""
"","html-keyboard-response",16,111823,"0.0-2.2-2.2",62,22,FALSE,1665500693807,750,"q","q","Only if I get the answer right","You win money","A fixed time limit",5,"female","Relaxing the eyes during task, taking time between breaks ","no",1,0,0,0,0,1,2,1,0,0,0,0,0,0,0,0,0,0,0,0,0,0,2,1,0,2,0,1,1,2,3,0,2,0,2,3,1,0,1,0,2,3,2,1,0,3,3,1,0,0,3,1,1,1,4,4,0,3,4,3,1,1,3,"456.90000009536743","","q","","true","practice","2","up","down","0","q","1","0","1665500806611","","","","","","","",""
"","html-keyboard-response",17,112512,"0.0-2.3-0.3",62,22,FALSE,1665500693807,750,"q","q","Only if I get the answer right","You win money","A fixed time limit",5,"female","Relaxing the eyes during task, taking time between breaks ","no",1,0,0,0,0,1,2,1,0,0,0,0,0,0,0,0,0,0,0,0,0,0,2,1,0,2,0,1,1,2,3,0,2,0,2,3,1,0,1,0,2,3,2,1,0,3,3,1,0,0,3,1,1,1,4,4,0,3,4,3,1,1,3,"688.6000001430511","<br><br><br><br><table><tr><td><img src=static/images/oddball_up.png></td><td><img src=static/images/oddball_down.png></td><td><img src=static/images/oddball_up.png></td></tr></table>","87","1","","","","","","","","","","","","","","","","","",""
"","html-keyboard-response",18,115024,"0.0-2.3-1.3",62,22,FALSE,1665500693807,750,"q","q","Only if I get the answer right","You win money","A fixed time limit",5,"female","Relaxing the eyes during task, taking time between breaks ","no",1,0,0,0,0,1,2,1,0,0,0,0,0,0,0,0,0,0,0,0,0,0,2,1,0,2,0,1,1,2,3,0,2,0,2,3,1,0,1,0,2,3,2,1,0,3,3,1,0,0,3,1,1,1,4,4,0,3,4,3,1,1,3,"null","<div style=""font-size:75px;""><b>Correct</b></div>","null","","","","","","","","","","","","","","","","","","",""
"","html-keyboard-response",19,116031,"0.0-2.3-2.3",62,22,FALSE,1665500693807,750,"q","q","Only if I get the answer right","You win money","A fixed time limit",5,"female","Relaxing the eyes during task, taking time between breaks ","no",1,0,0,0,0,1,2,1,0,0,0,0,0,0,0,0,0,0,0,0,0,0,2,1,0,2,0,1,1,2,3,0,2,0,2,3,1,0,1,0,2,3,2,1,0,3,3,1,0,0,3,1,1,1,4,4,0,3,4,3,1,1,3,"688.6000001430511","","w","","true","practice","3","up","down","1","w","1","0","1665500810819","","","","","","","",""
"","html-keyboard-response",20,116456,"0.0-2.4-0.4",62,22,FALSE,1665500693807,750,"q","q","Only if I get the answer right","You win money","A fixed time limit",5,"female","Relaxing the eyes during task, taking time between breaks ","no",1,0,0,0,0,1,2,1,0,0,0,0,0,0,0,0,0,0,0,0,0,0,2,1,0,2,0,1,1,2,3,0,2,0,2,3,1,0,1,0,2,3,2,1,0,3,3,1,0,0,3,1,1,1,4,4,0,3,4,3,1,1,3,"424","<br><br><br><br><table><tr><td><img src=static/images/oddball_up.png></td><td><img src=static/images/oddball_up.png></td><td><img src=static/images/oddball_down.png></td></tr></table>","69","1","","","","","","","","","","","","","","","","","",""
"","html-keyboard-response",21,118966,"0.0-2.4-1.4",62,22,FALSE,1665500693807,750,"q","q","Only if I get the answer right","You win money","A fixed time limit",5,"female","Relaxing the eyes during task, taking time between breaks ","no",1,0,0,0,0,1,2,1,0,0,0,0,0,0,0,0,0,0,0,0,0,0,2,1,0,2,0,1,1,2,3,0,2,0,2,3,1,0,1,0,2,3,2,1,0,3,3,1,0,0,3,1,1,1,4,4,0,3,4,3,1,1,3,"null","<div style=""font-size:75px;""><b>Correct</b></div>","null","","","","","","","","","","","","","","","","","","",""
"","html-keyboard-response",22,119970,"0.0-2.4-2.4",62,22,FALSE,1665500693807,750,"q","q","Only if I get the answer right","You win money","A fixed time limit",5,"female","Relaxing the eyes during task, taking time between breaks ","no",1,0,0,0,0,1,2,1,0,0,0,0,0,0,0,0,0,0,0,0,0,0,2,1,0,2,0,1,1,2,3,0,2,0,2,3,1,0,1,0,2,3,2,1,0,3,3,1,0,0,3,1,1,1,4,4,0,3,4,3,1,1,3,"424","","e","","true","practice","4","up","down","2","e","1","0","1665500814758","","","","","","","",""
"","html-keyboard-response",23,120368,"0.0-2.5-0.5",62,22,FALSE,1665500693807,750,"q","q","Only if I get the answer right","You win money","A fixed time limit",5,"female","Relaxing the eyes during task, taking time between breaks ","no",1,0,0,0,0,1,2,1,0,0,0,0,0,0,0,0,0,0,0,0,0,0,2,1,0,2,0,1,1,2,3,0,2,0,2,3,1,0,1,0,2,3,2,1,0,3,3,1,0,0,3,1,1,1,4,4,0,3,4,3,1,1,3,"396.7999999523163","<br><br><br><br><table><tr><td><img src=static/images/oddball_down.png></td><td><img src=static/images/oddball_up.png></td><td><img src=static/images/oddball_up.png></td></tr></table>","81","1","","","","","","","","","","","","","","","","","",""
"","html-keyboard-response",24,122873,"0.0-2.5-1.5",62,22,FALSE,1665500693807,750,"q","q","Only if I get the answer right","You win money","A fixed time limit",5,"female","Relaxing the eyes during task, taking time between breaks ","no",1,0,0,0,0,1,2,1,0,0,0,0,0,0,0,0,0,0,0,0,0,0,2,1,0,2,0,1,1,2,3,0,2,0,2,3,1,0,1,0,2,3,2,1,0,3,3,1,0,0,3,1,1,1,4,4,0,3,4,3,1,1,3,"null","<div style=""font-size:75px;""><b>Correct</b></div>","null","","","","","","","","","","","","","","","","","","",""
"","html-keyboard-response",25,123878,"0.0-2.5-2.5",62,22,FALSE,1665500693807,750,"q","q","Only if I get the answer right","You win money","A fixed time limit",5,"female","Relaxing the eyes during task, taking time between breaks ","no",1,0,0,0,0,1,2,1,0,0,0,0,0,0,0,0,0,0,0,0,0,0,2,1,0,2,0,1,1,2,3,0,2,0,2,3,1,0,1,0,2,3,2,1,0,3,3,1,0,0,3,1,1,1,4,4,0,3,4,3,1,1,3,"396.7999999523163","","q","","true","practice","5","up","down","0","q","1","0","1665500818666","","","","","","","",""
"","html-keyboard-response",26,124336,"0.0-2.6-0.6",62,22,FALSE,1665500693807,750,"q","q","Only if I get the answer right","You win money","A fixed time limit",5,"female","Relaxing the eyes during task, taking time between breaks ","no",1,0,0,0,0,1,2,1,0,0,0,0,0,0,0,0,0,0,0,0,0,0,2,1,0,2,0,1,1,2,3,0,2,0,2,3,1,0,1,0,2,3,2,1,0,3,3,1,0,0,3,1,1,1,4,4,0,3,4,3,1,1,3,"458","<br><br><br><br><table><tr><td><img src=static/images/oddball_down.png></td><td><img src=static/images/oddball_up.png></td><td><img src=static/images/oddball_up.png></td></tr></table>","81","1","","","","","","","","","","","","","","","","","",""
"","html-keyboard-response",27,126847,"0.0-2.6-1.6",62,22,FALSE,1665500693807,750,"q","q","Only if I get the answer right","You win money","A fixed time limit",5,"female","Relaxing the eyes during task, taking time between breaks ","no",1,0,0,0,0,1,2,1,0,0,0,0,0,0,0,0,0,0,0,0,0,0,2,1,0,2,0,1,1,2,3,0,2,0,2,3,1,0,1,0,2,3,2,1,0,3,3,1,0,0,3,1,1,1,4,4,0,3,4,3,1,1,3,"null","<div style=""font-size:75px;""><b>Correct</b></div>","null","","","","","","","","","","","","","","","","","","",""
"","html-keyboard-response",28,127851,"0.0-2.6-2.6",62,22,FALSE,1665500693807,750,"q","q","Only if I get the answer right","You win money","A fixed time limit",5,"female","Relaxing the eyes during task, taking time between breaks ","no",1,0,0,0,0,1,2,1,0,0,0,0,0,0,0,0,0,0,0,0,0,0,2,1,0,2,0,1,1,2,3,0,2,0,2,3,1,0,1,0,2,3,2,1,0,3,3,1,0,0,3,1,1,1,4,4,0,3,4,3,1,1,3,"458","","q","","true","practice","6","up","down","0","q","1","0","1665500822639","","","","","","","",""
"","html-keyboard-response",29,128360,"0.0-2.7-0.7",62,22,FALSE,1665500693807,750,"q","q","Only if I get the answer right","You win money","A fixed time limit",5,"female","Relaxing the eyes during task, taking time between breaks ","no",1,0,0,0,0,1,2,1,0,0,0,0,0,0,0,0,0,0,0,0,0,0,2,1,0,2,0,1,1,2,3,0,2,0,2,3,1,0,1,0,2,3,2,1,0,3,3,1,0,0,3,1,1,1,4,4,0,3,4,3,1,1,3,"508.39999985694885","<br><br><br><br><table><tr><td><img src=static/images/oddball_down.png></td><td><img src=static/images/oddball_up.png></td><td><img src=static/images/oddball_down.png></td></tr></table>","87","1","","","","","","","","","","","","","","","","","",""
"","html-keyboard-response",30,130871,"0.0-2.7-1.7",62,22,FALSE,1665500693807,750,"q","q","Only if I get the answer right","You win money","A fixed time limit",5,"female","Relaxing the eyes during task, taking time between breaks ","no",1,0,0,0,0,1,2,1,0,0,0,0,0,0,0,0,0,0,0,0,0,0,2,1,0,2,0,1,1,2,3,0,2,0,2,3,1,0,1,0,2,3,2,1,0,3,3,1,0,0,3,1,1,1,4,4,0,3,4,3,1,1,3,"null","<div style=""font-size:75px;""><b>Correct</b></div>","null","","","","","","","","","","","","","","","","","","",""
"","html-keyboard-response",31,131877,"0.0-2.7-2.7",62,22,FALSE,1665500693807,750,"q","q","Only if I get the answer right","You win money","A fixed time limit",5,"female","Relaxing the eyes during task, taking time between breaks ","no",1,0,0,0,0,1,2,1,0,0,0,0,0,0,0,0,0,0,0,0,0,0,2,1,0,2,0,1,1,2,3,0,2,0,2,3,1,0,1,0,2,3,2,1,0,3,3,1,0,0,3,1,1,1,4,4,0,3,4,3,1,1,3,"508.39999985694885","","w","","true","practice","7","down","up","1","w","1","0","1665500826665","","","","","","","",""
"","html-keyboard-response",32,132232,"0.0-2.8-0.8",62,22,FALSE,1665500693807,750,"q","q","Only if I get the answer right","You win money","A fixed time limit",5,"female","Relaxing the eyes during task, taking time between breaks ","no",1,0,0,0,0,1,2,1,0,0,0,0,0,0,0,0,0,0,0,0,0,0,2,1,0,2,0,1,1,2,3,0,2,0,2,3,1,0,1,0,2,3,2,1,0,3,3,1,0,0,3,1,1,1,4,4,0,3,4,3,1,1,3,"354.2000000476837","<br><br><br><br><table><tr><td><img src=static/images/oddball_up.png></td><td><img src=static/images/oddball_down.png></td><td><img src=static/images/oddball_up.png></td></tr></table>","87","1","","","","","","","","","","","","","","","","","",""
"","html-keyboard-response",33,134745,"0.0-2.8-1.8",62,22,FALSE,1665500693807,750,"q","q","Only if I get the answer right","You win money","A fixed time limit",5,"female","Relaxing the eyes during task, taking time between breaks ","no",1,0,0,0,0,1,2,1,0,0,0,0,0,0,0,0,0,0,0,0,0,0,2,1,0,2,0,1,1,2,3,0,2,0,2,3,1,0,1,0,2,3,2,1,0,3,3,1,0,0,3,1,1,1,4,4,0,3,4,3,1,1,3,"null","<div style=""font-size:75px;""><b>Correct</b></div>","null","","","","","","","","","","","","","","","","","","",""
"","html-keyboard-response",34,135750,"0.0-2.8-2.8",62,22,FALSE,1665500693807,750,"q","q","Only if I get the answer right","You win money","A fixed time limit",5,"female","Relaxing the eyes during task, taking time between breaks ","no",1,0,0,0,0,1,2,1,0,0,0,0,0,0,0,0,0,0,0,0,0,0,2,1,0,2,0,1,1,2,3,0,2,0,2,3,1,0,1,0,2,3,2,1,0,3,3,1,0,0,3,1,1,1,4,4,0,3,4,3,1,1,3,"354.2000000476837","","w","","true","practice","8","up","down","1","w","1","0","1665500830538","","","","","","","",""
"","html-keyboard-response",35,136336,"0.0-2.9-0.9",62,22,FALSE,1665500693807,750,"q","q","Only if I get the answer right","You win money","A fixed time limit",5,"female","Relaxing the eyes during task, taking time between breaks ","no",1,0,0,0,0,1,2,1,0,0,0,0,0,0,0,0,0,0,0,0,0,0,2,1,0,2,0,1,1,2,3,0,2,0,2,3,1,0,1,0,2,3,2,1,0,3,3,1,0,0,3,1,1,1,4,4,0,3,4,3,1,1,3,"585","<br><br><br><br><table><tr><td><img src=static/images/oddball_down.png></td><td><img src=static/images/oddball_down.png></td><td><img src=static/images/oddball_up.png></td></tr></table>","69","1","","","","","","","","","","","","","","","","","",""
"","html-keyboard-response",36,138837,"0.0-2.9-1.9",62,22,FALSE,1665500693807,750,"q","q","Only if I get the answer right","You win money","A fixed time limit",5,"female","Relaxing the eyes during task, taking time between breaks ","no",1,0,0,0,0,1,2,1,0,0,0,0,0,0,0,0,0,0,0,0,0,0,2,1,0,2,0,1,1,2,3,0,2,0,2,3,1,0,1,0,2,3,2,1,0,3,3,1,0,0,3,1,1,1,4,4,0,3,4,3,1,1,3,"null","<div style=""font-size:75px;""><b>Correct</b></div>","null","","","","","","","","","","","","","","","","","","",""
"","html-keyboard-response",37,139841,"0.0-2.9-2.9",62,22,FALSE,1665500693807,750,"q","q","Only if I get the answer right","You win money","A fixed time limit",5,"female","Relaxing the eyes during task, taking time between breaks ","no",1,0,0,0,0,1,2,1,0,0,0,0,0,0,0,0,0,0,0,0,0,0,2,1,0,2,0,1,1,2,3,0,2,0,2,3,1,0,1,0,2,3,2,1,0,3,3,1,0,0,3,1,1,1,4,4,0,3,4,3,1,1,3,"585","","e","","true","practice","9","down","up","2","e","1","0","1665500834629","","","","","","","",""
"","html-keyboard-response",38,140328,"0.0-2.10-0.10",62,22,FALSE,1665500693807,750,"q","q","Only if I get the answer right","You win money","A fixed time limit",5,"female","Relaxing the eyes during task, taking time between breaks ","no",1,0,0,0,0,1,2,1,0,0,0,0,0,0,0,0,0,0,0,0,0,0,2,1,0,2,0,1,1,2,3,0,2,0,2,3,1,0,1,0,2,3,2,1,0,3,3,1,0,0,3,1,1,1,4,4,0,3,4,3,1,1,3,"486.10000014305115","<br><br><br><br><table><tr><td><img src=static/images/oddball_down.png></td><td><img src=static/images/oddball_up.png></td><td><img src=static/images/oddball_down.png></td></tr></table>","87","1","","","","","","","","","","","","","","","","","",""
"","html-keyboard-response",39,142843,"0.0-2.10-1.10",62,22,FALSE,1665500693807,750,"q","q","Only if I get the answer right","You win money","A fixed time limit",5,"female","Relaxing the eyes during task, taking time between breaks ","no",1,0,0,0,0,1,2,1,0,0,0,0,0,0,0,0,0,0,0,0,0,0,2,1,0,2,0,1,1,2,3,0,2,0,2,3,1,0,1,0,2,3,2,1,0,3,3,1,0,0,3,1,1,1,4,4,0,3,4,3,1,1,3,"null","<div style=""font-size:75px;""><b>Correct</b></div>","null","","","","","","","","","","","","","","","","","","",""
"","html-keyboard-response",40,143849,"0.0-2.10-2.10",62,22,FALSE,1665500693807,750,"q","q","Only if I get the answer right","You win money","A fixed time limit",5,"female","Relaxing the eyes during task, taking time between breaks ","no",1,0,0,0,0,1,2,1,0,0,0,0,0,0,0,0,0,0,0,0,0,0,2,1,0,2,0,1,1,2,3,0,2,0,2,3,1,0,1,0,2,3,2,1,0,3,3,1,0,0,3,1,1,1,4,4,0,3,4,3,1,1,3,"486.10000014305115","","w","","true","practice","10","down","up","1","w","1","0","1665500838637","","","","","","","",""
"","html-keyboard-response",41,144360,"0.0-2.11-0.11",62,22,FALSE,1665500693807,750,"q","q","Only if I get the answer right","You win money","A fixed time limit",5,"female","Relaxing the eyes during task, taking time between breaks ","no",1,0,0,0,0,1,2,1,0,0,0,0,0,0,0,0,0,0,0,0,0,0,2,1,0,2,0,1,1,2,3,0,2,0,2,3,1,0,1,0,2,3,2,1,0,3,3,1,0,0,3,1,1,1,4,4,0,3,4,3,1,1,3,"510.5","<br><br><br><br><table><tr><td><img src=static/images/oddball_down.png></td><td><img src=static/images/oddball_down.png></td><td><img src=static/images/oddball_up.png></td></tr></table>","69","1","","","","","","","","","","","","","","","","","",""
"","html-keyboard-response",42,146867,"0.0-2.11-1.11",62,22,FALSE,1665500693807,750,"q","q","Only if I get the answer right","You win money","A fixed time limit",5,"female","Relaxing the eyes during task, taking time between breaks ","no",1,0,0,0,0,1,2,1,0,0,0,0,0,0,0,0,0,0,0,0,0,0,2,1,0,2,0,1,1,2,3,0,2,0,2,3,1,0,1,0,2,3,2,1,0,3,3,1,0,0,3,1,1,1,4,4,0,3,4,3,1,1,3,"null","<div style=""font-size:75px;""><b>Correct</b></div>","null","","","","","","","","","","","","","","","","","","",""
"","html-keyboard-response",43,147874,"0.0-2.11-2.11",62,22,FALSE,1665500693807,750,"q","q","Only if I get the answer right","You win money","A fixed time limit",5,"female","Relaxing the eyes during task, taking time between breaks ","no",1,0,0,0,0,1,2,1,0,0,0,0,0,0,0,0,0,0,0,0,0,0,2,1,0,2,0,1,1,2,3,0,2,0,2,3,1,0,1,0,2,3,2,1,0,3,3,1,0,0,3,1,1,1,4,4,0,3,4,3,1,1,3,"510.5","","e","","true","practice","11","down","up","2","e","1","0","1665500842662","","","","","","","",""
"","html-keyboard-response",44,148320,"0.0-2.12-0.12",62,22,FALSE,1665500693807,750,"q","q","Only if I get the answer right","You win money","A fixed time limit",5,"female","Relaxing the eyes during task, taking time between breaks ","no",1,0,0,0,0,1,2,1,0,0,0,0,0,0,0,0,0,0,0,0,0,0,2,1,0,2,0,1,1,2,3,0,2,0,2,3,1,0,1,0,2,3,2,1,0,3,3,1,0,0,3,1,1,1,4,4,0,3,4,3,1,1,3,"444.7000000476837","<br><br><br><br><table><tr><td><img src=static/images/oddball_up.png></td><td><img src=static/images/oddball_down.png></td><td><img src=static/images/oddball_down.png></td></tr></table>","81","1","","","","","","","","","","","","","","","","","",""
"","html-keyboard-response",45,150826,"0.0-2.12-1.12",62,22,FALSE,1665500693807,750,"q","q","Only if I get the answer right","You win money","A fixed time limit",5,"female","Relaxing the eyes during task, taking time between breaks ","no",1,0,0,0,0,1,2,1,0,0,0,0,0,0,0,0,0,0,0,0,0,0,2,1,0,2,0,1,1,2,3,0,2,0,2,3,1,0,1,0,2,3,2,1,0,3,3,1,0,0,3,1,1,1,4,4,0,3,4,3,1,1,3,"null","<div style=""font-size:75px;""><b>Correct</b></div>","null","","","","","","","","","","","","","","","","","","",""
"","html-keyboard-response",46,151830,"0.0-2.12-2.12",62,22,FALSE,1665500693807,750,"q","q","Only if I get the answer right","You win money","A fixed time limit",5,"female","Relaxing the eyes during task, taking time between breaks ","no",1,0,0,0,0,1,2,1,0,0,0,0,0,0,0,0,0,0,0,0,0,0,2,1,0,2,0,1,1,2,3,0,2,0,2,3,1,0,1,0,2,3,2,1,0,3,3,1,0,0,3,1,1,1,4,4,0,3,4,3,1,1,3,"444.7000000476837","","q","","true","practice","12","down","up","0","q","1","0","1665500846618","","","","","","","",""
"","html-keyboard-response",47,152216,"0.0-2.13-0.13",62,22,FALSE,1665500693807,750,"q","q","Only if I get the answer right","You win money","A fixed time limit",5,"female","Relaxing the eyes during task, taking time between breaks ","no",1,0,0,0,0,1,2,1,0,0,0,0,0,0,0,0,0,0,0,0,0,0,2,1,0,2,0,1,1,2,3,0,2,0,2,3,1,0,1,0,2,3,2,1,0,3,3,1,0,0,3,1,1,1,4,4,0,3,4,3,1,1,3,"385.2999999523163","<br><br><br><br><table><tr><td><img src=static/images/oddball_up.png></td><td><img src=static/images/oddball_up.png></td><td><img src=static/images/oddball_down.png></td></tr></table>","69","1","","","","","","","","","","","","","","","","","",""
"","html-keyboard-response",48,154731,"0.0-2.13-1.13",62,22,FALSE,1665500693807,750,"q","q","Only if I get the answer right","You win money","A fixed time limit",5,"female","Relaxing the eyes during task, taking time between breaks ","no",1,0,0,0,0,1,2,1,0,0,0,0,0,0,0,0,0,0,0,0,0,0,2,1,0,2,0,1,1,2,3,0,2,0,2,3,1,0,1,0,2,3,2,1,0,3,3,1,0,0,3,1,1,1,4,4,0,3,4,3,1,1,3,"null","<div style=""font-size:75px;""><b>Correct</b></div>","null","","","","","","","","","","","","","","","","","","",""
"","html-keyboard-response",49,155736,"0.0-2.13-2.13",62,22,FALSE,1665500693807,750,"q","q","Only if I get the answer right","You win money","A fixed time limit",5,"female","Relaxing the eyes during task, taking time between breaks ","no",1,0,0,0,0,1,2,1,0,0,0,0,0,0,0,0,0,0,0,0,0,0,2,1,0,2,0,1,1,2,3,0,2,0,2,3,1,0,1,0,2,3,2,1,0,3,3,1,0,0,3,1,1,1,4,4,0,3,4,3,1,1,3,"385.2999999523163","","e","","true","practice","13","up","down","2","e","1","0","1665500850524","","","","","","","",""
"","html-keyboard-response",50,156176,"0.0-2.14-0.14",62,22,FALSE,1665500693807,750,"q","q","Only if I get the answer right","You win money","A fixed time limit",5,"female","Relaxing the eyes during task, taking time between breaks ","no",1,0,0,0,0,1,2,1,0,0,0,0,0,0,0,0,0,0,0,0,0,0,2,1,0,2,0,1,1,2,3,0,2,0,2,3,1,0,1,0,2,3,2,1,0,3,3,1,0,0,3,1,1,1,4,4,0,3,4,3,1,1,3,"439.59999990463257","<br><br><br><br><table><tr><td><img src=static/images/oddball_down.png></td><td><img src=static/images/oddball_up.png></td><td><img src=static/images/oddball_down.png></td></tr></table>","87","1","","","","","","","","","","","","","","","","","",""
"","html-keyboard-response",51,158689,"0.0-2.14-1.14",62,22,FALSE,1665500693807,750,"q","q","Only if I get the answer right","You win money","A fixed time limit",5,"female","Relaxing the eyes during task, taking time between breaks ","no",1,0,0,0,0,1,2,1,0,0,0,0,0,0,0,0,0,0,0,0,0,0,2,1,0,2,0,1,1,2,3,0,2,0,2,3,1,0,1,0,2,3,2,1,0,3,3,1,0,0,3,1,1,1,4,4,0,3,4,3,1,1,3,"null","<div style=""font-size:75px;""><b>Correct</b></div>","null","","","","","","","","","","","","","","","","","","",""
"","html-keyboard-response",52,159704,"0.0-2.14-2.14",62,22,FALSE,1665500693807,750,"q","q","Only if I get the answer right","You win money","A fixed time limit",5,"female","Relaxing the eyes during task, taking time between breaks ","no",1,0,0,0,0,1,2,1,0,0,0,0,0,0,0,0,0,0,0,0,0,0,2,1,0,2,0,1,1,2,3,0,2,0,2,3,1,0,1,0,2,3,2,1,0,3,3,1,0,0,3,1,1,1,4,4,0,3,4,3,1,1,3,"439.59999990463257","","w","","true","practice","14","down","up","1","w","1","0","1665500854492","","","","","","","",""
"","html-keyboard-response",53,160152,"0.0-2.15-0.15",62,22,FALSE,1665500693807,750,"q","q","Only if I get the answer right","You win money","A fixed time limit",5,"female","Relaxing the eyes during task, taking time between breaks ","no",1,0,0,0,0,1,2,1,0,0,0,0,0,0,0,0,0,0,0,0,0,0,2,1,0,2,0,1,1,2,3,0,2,0,2,3,1,0,1,0,2,3,2,1,0,3,3,1,0,0,3,1,1,1,4,4,0,3,4,3,1,1,3,"447.7000000476837","<br><br><br><br><table><tr><td><img src=static/images/oddball_up.png></td><td><img src=static/images/oddball_down.png></td><td><img src=static/images/oddball_down.png></td></tr></table>","81","1","","","","","","","","","","","","","","","","","",""
"","html-keyboard-response",54,162656,"0.0-2.15-1.15",62,22,FALSE,1665500693807,750,"q","q","Only if I get the answer right","You win money","A fixed time limit",5,"female","Relaxing the eyes during task, taking time between breaks ","no",1,0,0,0,0,1,2,1,0,0,0,0,0,0,0,0,0,0,0,0,0,0,2,1,0,2,0,1,1,2,3,0,2,0,2,3,1,0,1,0,2,3,2,1,0,3,3,1,0,0,3,1,1,1,4,4,0,3,4,3,1,1,3,"null","<div style=""font-size:75px;""><b>Correct</b></div>","null","","","","","","","","","","","","","","","","","","",""
"","html-keyboard-response",55,163661,"0.0-2.15-2.15",62,22,FALSE,1665500693807,750,"q","q","Only if I get the answer right","You win money","A fixed time limit",5,"female","Relaxing the eyes during task, taking time between breaks ","no",1,0,0,0,0,1,2,1,0,0,0,0,0,0,0,0,0,0,0,0,0,0,2,1,0,2,0,1,1,2,3,0,2,0,2,3,1,0,1,0,2,3,2,1,0,3,3,1,0,0,3,1,1,1,4,4,0,3,4,3,1,1,3,"447.7000000476837","","q","","true","practice","15","down","up","0","q","1","0","1665500858449","","","","","","","",""
"","html-keyboard-response",56,164000,"0.0-2.16-0.16",62,22,FALSE,1665500693807,750,"q","q","Only if I get the answer right","You win money","A fixed time limit",5,"female","Relaxing the eyes during task, taking time between breaks ","no",1,0,0,0,0,1,2,1,0,0,0,0,0,0,0,0,0,0,0,0,0,0,2,1,0,2,0,1,1,2,3,0,2,0,2,3,1,0,1,0,2,3,2,1,0,3,3,1,0,0,3,1,1,1,4,4,0,3,4,3,1,1,3,"338.2999999523163","<br><br><br><br><table><tr><td><img src=static/images/oddball_down.png></td><td><img src=static/images/oddball_down.png></td><td><img src=static/images/oddball_up.png></td></tr></table>","69","1","","","","","","","","","","","","","","","","","",""
"","html-keyboard-response",57,166512,"0.0-2.16-1.16",62,22,FALSE,1665500693807,750,"q","q","Only if I get the answer right","You win money","A fixed time limit",5,"female","Relaxing the eyes during task, taking time between breaks ","no",1,0,0,0,0,1,2,1,0,0,0,0,0,0,0,0,0,0,0,0,0,0,2,1,0,2,0,1,1,2,3,0,2,0,2,3,1,0,1,0,2,3,2,1,0,3,3,1,0,0,3,1,1,1,4,4,0,3,4,3,1,1,3,"null","<div style=""font-size:75px;""><b>Correct</b></div>","null","","","","","","","","","","","","","","","","","","",""
"","html-keyboard-response",58,167517,"0.0-2.16-2.16",62,22,FALSE,1665500693807,750,"q","q","Only if I get the answer right","You win money","A fixed time limit",5,"female","Relaxing the eyes during task, taking time between breaks ","no",1,0,0,0,0,1,2,1,0,0,0,0,0,0,0,0,0,0,0,0,0,0,2,1,0,2,0,1,1,2,3,0,2,0,2,3,1,0,1,0,2,3,2,1,0,3,3,1,0,0,3,1,1,1,4,4,0,3,4,3,1,1,3,"338.2999999523163","","e","","true","practice","16","down","up","2","e","1","0","1665500862305","","","","","","","",""
"","html-keyboard-response",59,168088,"0.0-2.17-0.17",62,22,FALSE,1665500693807,750,"q","q","Only if I get the answer right","You win money","A fixed time limit",5,"female","Relaxing the eyes during task, taking time between breaks ","no",1,0,0,0,0,1,2,1,0,0,0,0,0,0,0,0,0,0,0,0,0,0,2,1,0,2,0,1,1,2,3,0,2,0,2,3,1,0,1,0,2,3,2,1,0,3,3,1,0,0,3,1,1,1,4,4,0,3,4,3,1,1,3,"569.7000000476837","<br><br><br><br><table><tr><td><img src=static/images/oddball_up.png></td><td><img src=static/images/oddball_down.png></td><td><img src=static/images/oddball_down.png></td></tr></table>","81","1","","","","","","","","","","","","","","","","","",""
"","html-keyboard-response",60,170588,"0.0-2.17-1.17",62,22,FALSE,1665500693807,750,"q","q","Only if I get the answer right","You win money","A fixed time limit",5,"female","Relaxing the eyes during task, taking time between breaks ","no",1,0,0,0,0,1,2,1,0,0,0,0,0,0,0,0,0,0,0,0,0,0,2,1,0,2,0,1,1,2,3,0,2,0,2,3,1,0,1,0,2,3,2,1,0,3,3,1,0,0,3,1,1,1,4,4,0,3,4,3,1,1,3,"null","<div style=""font-size:75px;""><b>Correct</b></div>","null","","","","","","","","","","","","","","","","","","",""
"","html-keyboard-response",61,171592,"0.0-2.17-2.17",62,22,FALSE,1665500693807,750,"q","q","Only if I get the answer right","You win money","A fixed time limit",5,"female","Relaxing the eyes during task, taking time between breaks ","no",1,0,0,0,0,1,2,1,0,0,0,0,0,0,0,0,0,0,0,0,0,0,2,1,0,2,0,1,1,2,3,0,2,0,2,3,1,0,1,0,2,3,2,1,0,3,3,1,0,0,3,1,1,1,4,4,0,3,4,3,1,1,3,"569.7000000476837","","q","","true","practice","17","down","up","0","q","1","0","1665500866380","","","","","","","",""
"","html-keyboard-response",62,172016,"0.0-2.18-0.18",62,22,FALSE,1665500693807,750,"q","q","Only if I get the answer right","You win money","A fixed time limit",5,"female","Relaxing the eyes during task, taking time between breaks ","no",1,0,0,0,0,1,2,1,0,0,0,0,0,0,0,0,0,0,0,0,0,0,2,1,0,2,0,1,1,2,3,0,2,0,2,3,1,0,1,0,2,3,2,1,0,3,3,1,0,0,3,1,1,1,4,4,0,3,4,3,1,1,3,"422.90000009536743","<br><br><br><br><table><tr><td><img src=static/images/oddball_down.png></td><td><img src=static/images/oddball_down.png></td><td><img src=static/images/oddball_up.png></td></tr></table>","69","1","","","","","","","","","","","","","","","","","",""
"","html-keyboard-response",63,174527,"0.0-2.18-1.18",62,22,FALSE,1665500693807,750,"q","q","Only if I get the answer right","You win money","A fixed time limit",5,"female","Relaxing the eyes during task, taking time between breaks ","no",1,0,0,0,0,1,2,1,0,0,0,0,0,0,0,0,0,0,0,0,0,0,2,1,0,2,0,1,1,2,3,0,2,0,2,3,1,0,1,0,2,3,2,1,0,3,3,1,0,0,3,1,1,1,4,4,0,3,4,3,1,1,3,"null","<div style=""font-size:75px;""><b>Correct</b></div>","null","","","","","","","","","","","","","","","","","","",""
"","html-keyboard-response",64,175532,"0.0-2.18-2.18",62,22,FALSE,1665500693807,750,"q","q","Only if I get the answer right","You win money","A fixed time limit",5,"female","Relaxing the eyes during task, taking time between breaks ","no",1,0,0,0,0,1,2,1,0,0,0,0,0,0,0,0,0,0,0,0,0,0,2,1,0,2,0,1,1,2,3,0,2,0,2,3,1,0,1,0,2,3,2,1,0,3,3,1,0,0,3,1,1,1,4,4,0,3,4,3,1,1,3,"422.90000009536743","","e","","true","practice","18","down","up","2","e","1","0","1665500870320","","","","","","","",""
"","html-keyboard-response",65,175944,"0.0-2.19-0.19",62,22,FALSE,1665500693807,750,"q","q","Only if I get the answer right","You win money","A fixed time limit",5,"female","Relaxing the eyes during task, taking time between breaks ","no",1,0,0,0,0,1,2,1,0,0,0,0,0,0,0,0,0,0,0,0,0,0,2,1,0,2,0,1,1,2,3,0,2,0,2,3,1,0,1,0,2,3,2,1,0,3,3,1,0,0,3,1,1,1,4,4,0,3,4,3,1,1,3,"411","<br><br><br><br><table><tr><td><img src=static/images/oddball_up.png></td><td><img src=static/images/oddball_up.png></td><td><img src=static/images/oddball_down.png></td></tr></table>","69","1","","","","","","","","","","","","","","","","","",""
"","html-keyboard-response",66,178453,"0.0-2.19-1.19",62,22,FALSE,1665500693807,750,"q","q","Only if I get the answer right","You win money","A fixed time limit",5,"female","Relaxing the eyes during task, taking time between breaks ","no",1,0,0,0,0,1,2,1,0,0,0,0,0,0,0,0,0,0,0,0,0,0,2,1,0,2,0,1,1,2,3,0,2,0,2,3,1,0,1,0,2,3,2,1,0,3,3,1,0,0,3,1,1,1,4,4,0,3,4,3,1,1,3,"null","<div style=""font-size:75px;""><b>Correct</b></div>","null","","","","","","","","","","","","","","","","","","",""
"","html-keyboard-response",67,179456,"0.0-2.19-2.19",62,22,FALSE,1665500693807,750,"q","q","Only if I get the answer right","You win money","A fixed time limit",5,"female","Relaxing the eyes during task, taking time between breaks ","no",1,0,0,0,0,1,2,1,0,0,0,0,0,0,0,0,0,0,0,0,0,0,2,1,0,2,0,1,1,2,3,0,2,0,2,3,1,0,1,0,2,3,2,1,0,3,3,1,0,0,3,1,1,1,4,4,0,3,4,3,1,1,3,"411","","e","","true","practice","19","up","down","2","e","1","0","1665500874244","","","","","","","",""
"","image-keyboard-response",68,187152,"0.0-3.0-0.0",62,22,FALSE,1665500693807,750,"q","q","Only if I get the answer right","You win money","A fixed time limit",5,"female","Relaxing the eyes during task, taking time between breaks ","no",1,0,0,0,0,1,2,1,0,0,0,0,0,0,0,0,0,0,0,0,0,0,2,1,0,2,0,1,1,2,3,0,2,0,2,3,1,0,1,0,2,3,2,1,0,3,3,1,0,0,3,1,1,1,4,4,0,3,4,3,1,1,3,"7694.900000095367","static/images/instructions/Slide8.png","39","","","","","","","","","","","","","","","","","","",""
"","image-keyboard-response",69,205688,"0.0-3.1-0.1",62,22,FALSE,1665500693807,750,"q","q","Only if I get the answer right","You win money","A fixed time limit",5,"female","Relaxing the eyes during task, taking time between breaks ","no",1,0,0,0,0,1,2,1,0,0,0,0,0,0,0,0,0,0,0,0,0,0,2,1,0,2,0,1,1,2,3,0,2,0,2,3,1,0,1,0,2,3,2,1,0,3,3,1,0,0,3,1,1,1,4,4,0,3,4,3,1,1,3,"18535","static/images/instructions/Slide9.png","39","","","","","","","","","","","","","","","","","","",""
"","image-keyboard-response",70,216560,"0.0-3.2-0.2",62,22,FALSE,1665500693807,750,"q","q","Only if I get the answer right","You win money","A fixed time limit",5,"female","Relaxing the eyes during task, taking time between breaks ","no",1,0,0,0,0,1,2,1,0,0,0,0,0,0,0,0,0,0,0,0,0,0,2,1,0,2,0,1,1,2,3,0,2,0,2,3,1,0,1,0,2,3,2,1,0,3,3,1,0,0,3,1,1,1,4,4,0,3,4,3,1,1,3,"10871.299999952316","static/images/instructions/Slide10.png","39","","","","","","","","","","","","","","","","","","",""
"","image-keyboard-response",71,233129,"0.0-3.3-0.3",62,22,FALSE,1665500693807,750,"q","q","Only if I get the answer right","You win money","A fixed time limit",5,"female","Relaxing the eyes during task, taking time between breaks ","no",1,0,0,0,0,1,2,1,0,0,0,0,0,0,0,0,0,0,0,0,0,0,2,1,0,2,0,1,1,2,3,0,2,0,2,3,1,0,1,0,2,3,2,1,0,3,3,1,0,0,3,1,1,1,4,4,0,3,4,3,1,1,3,"16583.5","static/images/instructions/Slide11.png","39","","","","","","","","","","","","","","","","","","",""
"","image-keyboard-response",72,236105,"0.0-3.4-0.4",62,22,FALSE,1665500693807,750,"q","q","Only if I get the answer right","You win money","A fixed time limit",5,"female","Relaxing the eyes during task, taking time between breaks ","no",1,0,0,0,0,1,2,1,0,0,0,0,0,0,0,0,0,0,0,0,0,0,2,1,0,2,0,1,1,2,3,0,2,0,2,3,1,0,1,0,2,3,2,1,0,3,3,1,0,0,3,1,1,1,4,4,0,3,4,3,1,1,3,"2975","static/images/instructions/Slide12.png","39","","","","","","","","","","","","","","","","","","",""
"","image-keyboard-response",73,242313,"0.0-3.5-0.5",62,22,FALSE,1665500693807,750,"q","q","Only if I get the answer right","You win money","A fixed time limit",5,"female","Relaxing the eyes during task, taking time between breaks ","no",1,0,0,0,0,1,2,1,0,0,0,0,0,0,0,0,0,0,0,0,0,0,2,1,0,2,0,1,1,2,3,0,2,0,2,3,1,0,1,0,2,3,2,1,0,3,3,1,0,0,3,1,1,1,4,4,0,3,4,3,1,1,3,"6207.900000095367","static/images/instructions/Slide13.png","39","","","","","","","","","","","","","","","","","","",""
"","image-keyboard-response",74,253050,"0.0-3.6-0.6",62,22,FALSE,1665500693807,750,"q","q","Only if I get the answer right","You win money","A fixed time limit",5,"female","Relaxing the eyes during task, taking time between breaks ","no",1,0,0,0,0,1,2,1,0,0,0,0,0,0,0,0,0,0,0,0,0,0,2,1,0,2,0,1,1,2,3,0,2,0,2,3,1,0,1,0,2,3,2,1,0,3,3,1,0,0,3,1,1,1,4,4,0,3,4,3,1,1,3,"10735.700000047684","static/images/instructions/Slide14.png","39","","","","","","","","","","","","","","","","","","",""
"","image-keyboard-response",75,261481,"0.0-3.7-0.7",62,22,FALSE,1665500693807,750,"q","q","Only if I get the answer right","You win money","A fixed time limit",5,"female","Relaxing the eyes during task, taking time between breaks ","no",1,0,0,0,0,1,2,1,0,0,0,0,0,0,0,0,0,0,0,0,0,0,2,1,0,2,0,1,1,2,3,0,2,0,2,3,1,0,1,0,2,3,2,1,0,3,3,1,0,0,3,1,1,1,4,4,0,3,4,3,1,1,3,"8431.099999904633","static/images/instructions/Slide15.png","39","","","","","","","","","","","","","","","","","","",""
"","image-keyboard-response",76,274585,"0.0-3.8-0.8",62,22,FALSE,1665500693807,750,"q","q","Only if I get the answer right","You win money","A fixed time limit",5,"female","Relaxing the eyes during task, taking time between breaks ","no",1,0,0,0,0,1,2,1,0,0,0,0,0,0,0,0,0,0,0,0,0,0,2,1,0,2,0,1,1,2,3,0,2,0,2,3,1,0,1,0,2,3,2,1,0,3,3,1,0,0,3,1,1,1,4,4,0,3,4,3,1,1,3,"13103.5","static/images/instructions/Slide16.png","39","","","","","","","","","","","","","","","","","","",""
"","image-keyboard-response",77,279433,"0.0-3.9-0.9",62,22,FALSE,1665500693807,750,"q","q","Only if I get the answer right","You win money","A fixed time limit",5,"female","Relaxing the eyes during task, taking time between breaks ","no",1,0,0,0,0,1,2,1,0,0,0,0,0,0,0,0,0,0,0,0,0,0,2,1,0,2,0,1,1,2,3,0,2,0,2,3,1,0,1,0,2,3,2,1,0,3,3,1,0,0,3,1,1,1,4,4,0,3,4,3,1,1,3,"4847.199999809265","static/images/instructions/Slide17.png","39","","","","","","","","","","","","","","","","","","",""
"","survey-multi-choice",78,364188,"0.0-4.0",62,22,FALSE,1665500693807,750,"q","q","Only if I get the answer right","You win money","A fixed time limit",5,"female","Relaxing the eyes during task, taking time between breaks ","no",1,0,0,0,0,1,2,1,0,0,0,0,0,0,0,0,0,0,0,0,0,0,2,1,0,2,0,1,1,2,3,0,2,0,2,3,1,0,1,0,2,3,2,1,0,3,3,1,0,0,3,1,1,1,4,4,0,3,4,3,1,1,3,"84720.79999995232","","","","","","","","","","","","","","{""q1"":""q"",""q2"":""q"",""q3"":""Only if I get the answer right"",""q4"":""You win money"",""q5"":""A fixed time limit""}","[2,3,4,0,1]","","","","","",""
"","image-keyboard-response",79,378720,"0.0-5.0-0.0",62,22,FALSE,1665500693807,750,"q","q","Only if I get the answer right","You win money","A fixed time limit",5,"female","Relaxing the eyes during task, taking time between breaks ","no",1,0,0,0,0,1,2,1,0,0,0,0,0,0,0,0,0,0,0,0,0,0,2,1,0,2,0,1,1,2,3,0,2,0,2,3,1,0,1,0,2,3,2,1,0,3,3,1,0,0,3,1,1,1,4,4,0,3,4,3,1,1,3,"14526.400000095367","static/images/instructions/Slide18.png","39","","","","","","","","","","","","","","","","","","",""
"","html-keyboard-response",80,379731,"0.0-6.0-0.0-0.0",62,22,FALSE,1665500693807,750,"q","q","Only if I get the answer right","You win money","A fixed time limit",5,"female","Relaxing the eyes during task, taking time between breaks ","no",1,0,0,0,0,1,2,1,0,0,0,0,0,0,0,0,0,0,0,0,0,0,2,1,0,2,0,1,1,2,3,0,2,0,2,3,1,0,1,0,2,3,2,1,0,3,3,1,0,0,3,1,1,1,4,4,0,3,4,3,1,1,3,"null","<div style=""font-size:75px;"">3</div>","null","","","","","","","","","","","","","","","","","","",""
"","html-keyboard-response",81,380742,"0.0-6.0-0.1-0.1",62,22,FALSE,1665500693807,750,"q","q","Only if I get the answer right","You win money","A fixed time limit",5,"female","Relaxing the eyes during task, taking time between breaks ","no",1,0,0,0,0,1,2,1,0,0,0,0,0,0,0,0,0,0,0,0,0,0,2,1,0,2,0,1,1,2,3,0,2,0,2,3,1,0,1,0,2,3,2,1,0,3,3,1,0,0,3,1,1,1,4,4,0,3,4,3,1,1,3,"null","<div style=""font-size:75px;"">2</div>","null","","","","","","","","","","","","","","","","","","",""
"","html-keyboard-response",82,381753,"0.0-6.0-0.2-0.2",62,22,FALSE,1665500693807,750,"q","q","Only if I get the answer right","You win money","A fixed time limit",5,"female","Relaxing the eyes during task, taking time between breaks ","no",1,0,0,0,0,1,2,1,0,0,0,0,0,0,0,0,0,0,0,0,0,0,2,1,0,2,0,1,1,2,3,0,2,0,2,3,1,0,1,0,2,3,2,1,0,3,3,1,0,0,3,1,1,1,4,4,0,3,4,3,1,1,3,"null","<div style=""font-size:75px;"">1</div>","null","","","","","","","","","","","","","","","","","","",""
"","html-keyboard-response",83,382248,"0.0-6.0-1.0-0.0",62,22,FALSE,1665500693807,750,"q","q","Only if I get the answer right","You win money","A fixed time limit",5,"female","Relaxing the eyes during task, taking time between breaks ","no",1,0,0,0,0,1,2,1,0,0,0,0,0,0,0,0,0,0,0,0,0,0,2,1,0,2,0,1,1,2,3,0,2,0,2,3,1,0,1,0,2,3,2,1,0,3,3,1,0,0,3,1,1,1,4,4,0,3,4,3,1,1,3,"493.30000019073486","<div style=""color:green; font-size:75px;""><b>$0.20</b></div><br><br><br><br><table><tr><td><img src=static/images/oddball_down.png></td><td><img src=static/images/oddball_down.png></td><td><img src=static/images/oddball_up.png></td></tr></table>","69","1","","","","","","","","","","","","","","","","","",""
"","html-keyboard-response",84,382284.455139277,"0.0-6.0-1.0-1.0",62,22,FALSE,1665500693807,750,"q","q","Only if I get the answer right","You win money","A fixed time limit",5,"female","Relaxing the eyes during task, taking time between breaks ","no",1,0,0,0,0,1,2,1,0,0,0,0,0,0,0,0,0,0,0,0,0,0,2,1,0,2,0,1,1,2,3,0,2,0,2,3,1,0,1,0,2,3,2,1,0,3,3,1,0,0,3,1,1,1,4,4,0,3,4,3,1,1,3,"429.755139467764","","e","","true","0","0","down","up","2","e","1","0","1665501077073.46","","","false","60","0","0","0.2","null"
"","html-keyboard-response",85,383104,"0.0-6.0-1.1-0.1",62,22,FALSE,1665500693807,750,"q","q","Only if I get the answer right","You win money","A fixed time limit",5,"female","Relaxing the eyes during task, taking time between breaks ","no",1,0,0,0,0,1,2,1,0,0,0,0,0,0,0,0,0,0,0,0,0,0,2,1,0,2,0,1,1,2,3,0,2,0,2,3,1,0,1,0,2,3,2,1,0,3,3,1,0,0,3,1,1,1,4,4,0,3,4,3,1,1,3,"null","<div style=""color:green; font-size:75px;""><b>$0.20</b></div><br><br><br><br><table><tr><td><img src=static/images/oddball_up.png></td><td><img src=static/images/oddball_down.png></td><td><img src=static/images/oddball_down.png></td></tr></table>","null","","","","","","","","","","","","","","","","","","",""
"","html-keyboard-response",86,383223,"0.0-6.0-1.1-1.1",62,22,FALSE,1665500693807,750,"q","q","Only if I get the answer right","You win money","A fixed time limit",5,"female","Relaxing the eyes during task, taking time between breaks ","no",1,0,0,0,0,1,2,1,0,0,0,0,0,0,0,0,0,0,0,0,0,0,2,1,0,2,0,1,1,2,3,0,2,0,2,3,1,0,1,0,2,3,2,1,0,3,3,1,0,0,3,1,1,1,4,4,0,3,4,3,1,1,3,"null","","null","","true","0","1","down","up","0","q","0","0","1665501078011","","","false","60","1","0.0166666666666667","0.2","true"
"","html-keyboard-response",87,383304,"0.0-6.0-1.2-0.2",62,22,FALSE,1665500693807,750,"q","q","Only if I get the answer right","You win money","A fixed time limit",5,"female","Relaxing the eyes during task, taking time between breaks ","no",1,0,0,0,0,1,2,1,0,0,0,0,0,0,0,0,0,0,0,0,0,0,2,1,0,2,0,1,1,2,3,0,2,0,2,3,1,0,1,0,2,3,2,1,0,3,3,1,0,0,3,1,1,1,4,4,0,3,4,3,1,1,3,"80.60000014305115","<div style=""color:green; font-size:75px;""><b>$0.20</b></div><br><br><br><br><table><tr><td><img src=static/images/oddball_down.png></td><td><img src=static/images/oddball_up.png></td><td><img src=static/images/oddball_down.png></td></tr></table>","81","1","","","","","","","","","","","","","","","","","",""
"","html-keyboard-response",88,383417,"0.0-6.0-1.2-1.2",62,22,FALSE,1665500693807,750,"q","q","Only if I get the answer right","You win money","A fixed time limit",5,"female","Relaxing the eyes during task, taking time between breaks ","no",1,0,0,0,0,1,2,1,0,0,0,0,0,0,0,0,0,0,0,0,0,0,2,1,0,2,0,1,1,2,3,0,2,0,2,3,1,0,1,0,2,3,2,1,0,3,3,1,0,0,3,1,1,1,4,4,0,3,4,3,1,1,3,"80.60000014305115","","q","","true","0","2","down","up","1","w","0","0","1665501078205","","","false","60","2","0.0166666666666667","0.2","false"
"","html-keyboard-response",89,384112,"0.0-6.0-1.3-0.3",62,22,FALSE,1665500693807,750,"q","q","Only if I get the answer right","You win money","A fixed time limit",5,"female","Relaxing the eyes during task, taking time between breaks ","no",1,0,0,0,0,1,2,1,0,0,0,0,0,0,0,0,0,0,0,0,0,0,2,1,0,2,0,1,1,2,3,0,2,0,2,3,1,0,1,0,2,3,2,1,0,3,3,1,0,0,3,1,1,1,4,4,0,3,4,3,1,1,3,"693.9000000953674","<div style=""color:green; font-size:75px;""><b>$0.20</b></div><br><br><br><br><table><tr><td><img src=static/images/oddball_down.png></td><td><img src=static/images/oddball_up.png></td><td><img src=static/images/oddball_down.png></td></tr></table>","87","1","","","","","","","","","","","","","","","","","",""
"","html-keyboard-response",90,384256.101796313,"0.0-6.0-1.3-1.3",62,22,FALSE,1665500693807,750,"q","q","Only if I get the answer right","You win money","A fixed time limit",5,"female","Relaxing the eyes during task, taking time between breaks ","no",1,0,0,0,0,1,2,1,0,0,0,0,0,0,0,0,0,0,0,0,0,0,2,1,0,2,0,1,1,2,3,0,2,0,2,3,1,0,1,0,2,3,2,1,0,3,3,1,0,0,3,1,1,1,4,4,0,3,4,3,1,1,3,"731.001796408091","","w","","true","0","3","down","up","1","w","1","0","1665501079044.1","","","false","60","3","0.0166666666666667","0.2","false"
"","html-keyboard-response",91,384776,"0.0-6.0-1.4-0.4",62,22,FALSE,1665500693807,750,"q","q","Only if I get the answer right","You win money","A fixed time limit",5,"female","Relaxing the eyes during task, taking time between breaks ","no",1,0,0,0,0,1,2,1,0,0,0,0,0,0,0,0,0,0,0,0,0,0,2,1,0,2,0,1,1,2,3,0,2,0,2,3,1,0,1,0,2,3,2,1,0,3,3,1,0,0,3,1,1,1,4,4,0,3,4,3,1,1,3,"555.6000001430511","<div style=""color:green; font-size:75px;""><b>$0.20</b></div><br><br><br><br><table><tr><td><img src=static/images/oddball_down.png></td><td><img src=static/images/oddball_down.png></td><td><img src=static/images/oddball_up.png></td></tr></table>","69","1","","","","","","","","","","","","","","","","","",""
"","html-keyboard-response",92,384890.188171125,"0.0-6.0-1.4-1.4",62,22,FALSE,1665500693807,750,"q","q","Only if I get the answer right","You win money","A fixed time limit",5,"female","Relaxing the eyes during task, taking time between breaks ","no",1,0,0,0,0,1,2,1,0,0,0,0,0,0,0,0,0,0,0,0,0,0,2,1,0,2,0,1,1,2,3,0,2,0,2,3,1,0,1,0,2,3,2,1,0,3,3,1,0,0,3,1,1,1,4,4,0,3,4,3,1,1,3,"557.788171268213","","e","","true","0","4","down","up","2","e","1","0","1665501079678.19","","","false","60","4","0.0333333333333333","0.2","false"
"","html-keyboard-response",93,385400,"0.0-6.0-1.5-0.5",62,22,FALSE,1665500693807,750,"q","q","Only if I get the answer right","You win money","A fixed time limit",5,"female","Relaxing the eyes during task, taking time between breaks ","no",1,0,0,0,0,1,2,1,0,0,0,0,0,0,0,0,0,0,0,0,0,0,2,1,0,2,0,1,1,2,3,0,2,0,2,3,1,0,1,0,2,3,2,1,0,3,3,1,0,0,3,1,1,1,4,4,0,3,4,3,1,1,3,"510.7999999523163","<div style=""color:green; font-size:75px;""><b>$0.20</b></div><br><br><br><br><table><tr><td><img src=static/images/oddball_down.png></td><td><img src=static/images/oddball_up.png></td><td><img src=static/images/oddball_up.png></td></tr></table>","81","1","","","","","","","","","","","","","","","","","",""
"","html-keyboard-response",94,385548.374835308,"0.0-6.0-1.5-1.5",62,22,FALSE,1665500693807,750,"q","q","Only if I get the answer right","You win money","A fixed time limit",5,"female","Relaxing the eyes during task, taking time between breaks ","no",1,0,0,0,0,1,2,1,0,0,0,0,0,0,0,0,0,0,0,0,0,0,2,1,0,2,0,1,1,2,3,0,2,0,2,3,1,0,1,0,2,3,2,1,0,3,3,1,0,0,3,1,1,1,4,4,0,3,4,3,1,1,3,"554.174835260393","","q","","true","0","5","up","down","0","q","1","0","1665501080336.37","","","false","60","5","0.05","0.2","false"
"","html-keyboard-response",95,386008,"0.0-6.0-1.6-0.6",62,22,FALSE,1665500693807,750,"q","q","Only if I get the answer right","You win money","A fixed time limit",5,"female","Relaxing the eyes during task, taking time between breaks ","no",1,0,0,0,0,1,2,1,0,0,0,0,0,0,0,0,0,0,0,0,0,0,2,1,0,2,0,1,1,2,3,0,2,0,2,3,1,0,1,0,2,3,2,1,0,3,3,1,0,0,3,1,1,1,4,4,0,3,4,3,1,1,3,"501.7999999523163","<div style=""color:green; font-size:75px;""><b>$0.20</b></div><br><br><br><br><table><tr><td><img src=static/images/oddball_down.png></td><td><img src=static/images/oddball_down.png></td><td><img src=static/images/oddball_up.png></td></tr></table>","69","1","","","","","","","","","","","","","","","","","",""
"","html-keyboard-response",96,386073.946929442,"0.0-6.0-1.6-1.6",62,22,FALSE,1665500693807,750,"q","q","Only if I get the answer right","You win money","A fixed time limit",5,"female","Relaxing the eyes during task, taking time between breaks ","no",1,0,0,0,0,1,2,1,0,0,0,0,0,0,0,0,0,0,0,0,0,0,2,1,0,2,0,1,1,2,3,0,2,0,2,3,1,0,1,0,2,3,2,1,0,3,3,1,0,0,3,1,1,1,4,4,0,3,4,3,1,1,3,"452.746929394158","","e","","true","0","6","down","up","2","e","1","0","1665501080875.95","","","false","60","6","0.0666666666666667","0.2","false"
"","html-keyboard-response",97,386648,"0.0-6.0-1.7-0.7",62,22,FALSE,1665500693807,750,"q","q","Only if I get the answer right","You win money","A fixed time limit",5,"female","Relaxing the eyes during task, taking time between breaks ","no",1,0,0,0,0,1,2,1,0,0,0,0,0,0,0,0,0,0,0,0,0,0,2,1,0,2,0,1,1,2,3,0,2,0,2,3,1,0,1,0,2,3,2,1,0,3,3,1,0,0,3,1,1,1,4,4,0,3,4,3,1,1,3,"509.7000000476837","<div style=""color:green; font-size:75px;""><b>$0.20</b></div><br><br><br><br><table><tr><td><img src=static/images/oddball_down.png></td><td><img src=static/images/oddball_up.png></td><td><img src=static/images/oddball_down.png></td></tr></table>","87","1","","","","","","","","","","","","","","","","","",""
"","html-keyboard-response",98,386820.708761521,"0.0-6.0-1.7-1.7",62,22,FALSE,1665500693807,750,"q","q","Only if I get the answer right","You win money","A fixed time limit",5,"female","Relaxing the eyes during task, taking time between breaks ","no",1,0,0,0,0,1,2,1,0,0,0,0,0,0,0,0,0,0,0,0,0,0,2,1,0,2,0,1,1,2,3,0,2,0,2,3,1,0,1,0,2,3,2,1,0,3,3,1,0,0,3,1,1,1,4,4,0,3,4,3,1,1,3,"573.408761568594","","w","","true","0","7","down","up","1","w","1","0","1665501081608.71","","","false","60","7","0.0833333333333333","0.2","false"
"","html-keyboard-response",99,387272,"0.0-6.0-1.8-0.8",62,22,FALSE,1665500693807,750,"q","q","Only if I get the answer right","You win money","A fixed time limit",5,"female","Relaxing the eyes during task, taking time between breaks ","no",1,0,0,0,0,1,2,1,0,0,0,0,0,0,0,0,0,0,0,0,0,0,2,1,0,2,0,1,1,2,3,0,2,0,2,3,1,0,1,0,2,3,2,1,0,3,3,1,0,0,3,1,1,1,4,4,0,3,4,3,1,1,3,"514.4000000953674","<div style=""color:green; font-size:75px;""><b>$0.20</b></div><br><br><br><br><table><tr><td><img src=static/images/oddball_up.png></td><td><img src=static/images/oddball_down.png></td><td><img src=static/images/oddball_up.png></td></tr></table>","87","1","","","","","","","","","","","","","","","","","",""
"","html-keyboard-response",100,387365.626302185,"0.0-6.0-1.8-1.8",62,22,FALSE,1665500693807,750,"q","q","Only if I get the answer right","You win money","A fixed time limit",5,"female","Relaxing the eyes during task, taking time between breaks ","no",1,0,0,0,0,1,2,1,0,0,0,0,0,0,0,0,0,0,0,0,0,0,2,1,0,2,0,1,1,2,3,0,2,0,2,3,1,0,1,0,2,3,2,1,0,3,3,1,0,0,3,1,1,1,4,4,0,3,4,3,1,1,3,"505.026302279937","","w","","true","0","8","up","down","1","w","1","0","1665501082153.63","","","false","60","8","0.1","0.2","false"
"","html-keyboard-response",101,387912,"0.0-6.0-1.9-0.9",62,22,FALSE,1665500693807,750,"q","q","Only if I get the answer right","You win money","A fixed time limit",5,"female","Relaxing the eyes during task, taking time between breaks ","no",1,0,0,0,0,1,2,1,0,0,0,0,0,0,0,0,0,0,0,0,0,0,2,1,0,2,0,1,1,2,3,0,2,0,2,3,1,0,1,0,2,3,2,1,0,3,3,1,0,0,3,1,1,1,4,4,0,3,4,3,1,1,3,"536.1999998092651","<div style=""color:green; font-size:75px;""><b>$0.20</b></div><br><br><br><br><table><tr><td><img src=static/images/oddball_up.png></td><td><img src=static/images/oddball_up.png></td><td><img src=static/images/oddball_down.png></td></tr></table>","69","1","","","","","","","","","","","","","","","","","",""
"","html-keyboard-response",102,388005.970110962,"0.0-6.0-1.9-1.9",62,22,FALSE,1665500693807,750,"q","q","Only if I get the answer right","You win money","A fixed time limit",5,"female","Relaxing the eyes during task, taking time between breaks ","no",1,0,0,0,0,1,2,1,0,0,0,0,0,0,0,0,0,0,0,0,0,0,2,1,0,2,0,1,1,2,3,0,2,0,2,3,1,0,1,0,2,3,2,1,0,3,3,1,0,0,3,1,1,1,4,4,0,3,4,3,1,1,3,"515.170110770989","","e","","true","0","9","up","down","2","e","1","0","1665501082793.97","","","false","60","9","0.116666666666667","0.2","false"
"","html-keyboard-response",103,388608,"0.0-6.0-1.10-0.10",62,22,FALSE,1665500693807,750,"q","q","Only if I get the answer right","You win money","A fixed time limit",5,"female","Relaxing the eyes during task, taking time between breaks ","no",1,0,0,0,0,1,2,1,0,0,0,0,0,0,0,0,0,0,0,0,0,0,2,1,0,2,0,1,1,2,3,0,2,0,2,3,1,0,1,0,2,3,2,1,0,3,3,1,0,0,3,1,1,1,4,4,0,3,4,3,1,1,3,"580.1999998092651","<div style=""color:green; font-size:75px;""><b>$0.20</b></div><br><br><br><br><table><tr><td><img src=static/images/oddball_up.png></td><td><img src=static/images/oddball_down.png></td><td><img src=static/images/oddball_down.png></td></tr></table>","81","1","","","","","","","","","","","","","","","","","",""
"","html-keyboard-response",104,388721.419030487,"0.0-6.0-1.10-1.10",62,22,FALSE,1665500693807,750,"q","q","Only if I get the answer right","You win money","A fixed time limit",5,"female","Relaxing the eyes during task, taking time between breaks ","no",1,0,0,0,0,1,2,1,0,0,0,0,0,0,0,0,0,0,0,0,0,0,2,1,0,2,0,1,1,2,3,0,2,0,2,3,1,0,1,0,2,3,2,1,0,3,3,1,0,0,3,1,1,1,4,4,0,3,4,3,1,1,3,"591.61903029622","","q","","true","0","10","down","up","0","q","1","0","1665501083510.42","","","false","60","10","0.133333333333333","0.2","false"
"","html-keyboard-response",105,389216,"0.0-6.0-1.11-0.11",62,22,FALSE,1665500693807,750,"q","q","Only if I get the answer right","You win money","A fixed time limit",5,"female","Relaxing the eyes during task, taking time between breaks ","no",1,0,0,0,0,1,2,1,0,0,0,0,0,0,0,0,0,0,0,0,0,0,2,1,0,2,0,1,1,2,3,0,2,0,2,3,1,0,1,0,2,3,2,1,0,3,3,1,0,0,3,1,1,1,4,4,0,3,4,3,1,1,3,"504.7999999523163","<div style=""color:green; font-size:75px;""><b>$0.20</b></div><br><br><br><br><table><tr><td><img src=static/images/oddball_up.png></td><td><img src=static/images/oddball_up.png></td><td><img src=static/images/oddball_down.png></td></tr></table>","69","1","","","","","","","","","","","","","","","","","",""
"","html-keyboard-response",106,389402.327310169,"0.0-6.0-1.11-1.11",62,22,FALSE,1665500693807,750,"q","q","Only if I get the answer right","You win money","A fixed time limit",5,"female","Relaxing the eyes during task, taking time between breaks ","no",1,0,0,0,0,1,2,1,0,0,0,0,0,0,0,0,0,0,0,0,0,0,2,1,0,2,0,1,1,2,3,0,2,0,2,3,1,0,1,0,2,3,2,1,0,3,3,1,0,0,3,1,1,1,4,4,0,3,4,3,1,1,3,"579.127310121787","","e","","true","0","11","up","down","2","e","1","0","1665501084190.33","","","false","60","11","0.15","0.2","false"
"","html-keyboard-response",107,389823,"0.0-6.0-1.12-0.12",62,22,FALSE,1665500693807,750,"q","q","Only if I get the answer right","You win money","A fixed time limit",5,"female","Relaxing the eyes during task, taking time between breaks ","no",1,0,0,0,0,1,2,1,0,0,0,0,0,0,0,0,0,0,0,0,0,0,2,1,0,2,0,1,1,2,3,0,2,0,2,3,1,0,1,0,2,3,2,1,0,3,3,1,0,0,3,1,1,1,4,4,0,3,4,3,1,1,3,"494.2999999523163","<div style=""color:green; font-size:75px;""><b>$0.20</b></div><br><br><br><br><table><tr><td><img src=static/images/oddball_down.png></td><td><img src=static/images/oddball_up.png></td><td><img src=static/images/oddball_up.png></td></tr></table>","81","1","","","","","","","","","","","","","","","","","",""
"","html-keyboard-response",108,389935.220374907,"0.0-6.0-1.12-1.12",62,22,FALSE,1665500693807,750,"q","q","Only if I get the answer right","You win money","A fixed time limit",5,"female","Relaxing the eyes during task, taking time between breaks ","no",1,0,0,0,0,1,2,1,0,0,0,0,0,0,0,0,0,0,0,0,0,0,2,1,0,2,0,1,1,2,3,0,2,0,2,3,1,0,1,0,2,3,2,1,0,3,3,1,0,0,3,1,1,1,4,4,0,3,4,3,1,1,3,"500.520374858841","","q","","true","0","12","up","down","0","q","1","0","1665501084723.22","","","false","60","12","0.166666666666667","0.2","false"
"","html-keyboard-response",109,390685,"0.0-6.0-1.13-0.13",62,22,FALSE,1665500693807,750,"q","q","Only if I get the answer right","You win money","A fixed time limit",5,"female","Relaxing the eyes during task, taking time between breaks ","no",1,0,0,0,0,1,2,1,0,0,0,0,0,0,0,0,0,0,0,0,0,0,2,1,0,2,0,1,1,2,3,0,2,0,2,3,1,0,1,0,2,3,2,1,0,3,3,1,0,0,3,1,1,1,4,4,0,3,4,3,1,1,3,"null","<div style=""color:green; font-size:75px;""><b>$0.20</b></div><br><br><br><br><table><tr><td><img src=static/images/oddball_up.png></td><td><img src=static/images/oddball_down.png></td><td><img src=static/images/oddball_down.png></td></tr></table>","null","","","","","","","","","","","","","","","","","","",""
"","html-keyboard-response",110,390804,"0.0-6.0-1.13-1.13",62,22,FALSE,1665500693807,750,"q","q","Only if I get the answer right","You win money","A fixed time limit",5,"female","Relaxing the eyes during task, taking time between breaks ","no",1,0,0,0,0,1,2,1,0,0,0,0,0,0,0,0,0,0,0,0,0,0,2,1,0,2,0,1,1,2,3,0,2,0,2,3,1,0,1,0,2,3,2,1,0,3,3,1,0,0,3,1,1,1,4,4,0,3,4,3,1,1,3,"null","","null","","true","0","13","down","up","0","q","0","0","1665501085592","","","false","60","13","0.183333333333333","0.2","true"
"","html-keyboard-response",111,390816,"0.0-6.0-1.14-0.14",62,22,FALSE,1665500693807,750,"q","q","Only if I get the answer right","You win money","A fixed time limit",5,"female","Relaxing the eyes during task, taking time between breaks ","no",1,0,0,0,0,1,2,1,0,0,0,0,0,0,0,0,0,0,0,0,0,0,2,1,0,2,0,1,1,2,3,0,2,0,2,3,1,0,1,0,2,3,2,1,0,3,3,1,0,0,3,1,1,1,4,4,0,3,4,3,1,1,3,"11.200000047683716","<div style=""color:green; font-size:75px;""><b>$0.20</b></div><br><br><br><br><table><tr><td><img src=static/images/oddball_up.png></td><td><img src=static/images/oddball_down.png></td><td><img src=static/images/oddball_up.png></td></tr></table>","81","1","","","","","","","","","","","","","","","","","",""
"","html-keyboard-response",112,390931,"0.0-6.0-1.14-1.14",62,22,FALSE,1665500693807,750,"q","q","Only if I get the answer right","You win money","A fixed time limit",5,"female","Relaxing the eyes during task, taking time between breaks ","no",1,0,0,0,0,1,2,1,0,0,0,0,0,0,0,0,0,0,0,0,0,0,2,1,0,2,0,1,1,2,3,0,2,0,2,3,1,0,1,0,2,3,2,1,0,3,3,1,0,0,3,1,1,1,4,4,0,3,4,3,1,1,3,"11.200000047683716","","q","","true","0","14","up","down","1","w","0","0","1665501085719","","","false","60","14","0.183333333333333","0.2","false"
"","html-keyboard-response",113,391584,"0.0-6.0-1.15-0.15",62,22,FALSE,1665500693807,750,"q","q","Only if I get the answer right","You win money","A fixed time limit",5,"female","Relaxing the eyes during task, taking time between breaks ","no",1,0,0,0,0,1,2,1,0,0,0,0,0,0,0,0,0,0,0,0,0,0,2,1,0,2,0,1,1,2,3,0,2,0,2,3,1,0,1,0,2,3,2,1,0,3,3,1,0,0,3,1,1,1,4,4,0,3,4,3,1,1,3,"651.7000000476837","<div style=""color:green; font-size:75px;""><b>$0.20</b></div><br><br><br><br><table><tr><td><img src=static/images/oddball_down.png></td><td><img src=static/images/oddball_up.png></td><td><img src=static/images/oddball_down.png></td></tr></table>","87","1","","","","","","","","","","","","","","","","","",""
"","html-keyboard-response",114,391578.403868994,"0.0-6.0-1.15-1.15",62,22,FALSE,1665500693807,750,"q","q","Only if I get the answer right","You win money","A fixed time limit",5,"female","Relaxing the eyes during task, taking time between breaks ","no",1,0,0,0,0,1,2,1,0,0,0,0,0,0,0,0,0,0,0,0,0,0,2,1,0,2,0,1,1,2,3,0,2,0,2,3,1,0,1,0,2,3,2,1,0,3,3,1,0,0,3,1,1,1,4,4,0,3,4,3,1,1,3,"532.103869041314","","w","","true","0","15","down","up","1","w","1","0","1665501086366.4","","","false","60","15","0.183333333333333","0.2","false"
"","html-keyboard-response",115,392248,"0.0-6.0-1.16-0.16",62,22,FALSE,1665500693807,750,"q","q","Only if I get the answer right","You win money","A fixed time limit",5,"female","Relaxing the eyes during task, taking time between breaks ","no",1,0,0,0,0,1,2,1,0,0,0,0,0,0,0,0,0,0,0,0,0,0,2,1,0,2,0,1,1,2,3,0,2,0,2,3,1,0,1,0,2,3,2,1,0,3,3,1,0,0,3,1,1,1,4,4,0,3,4,3,1,1,3,"548.5999999046326","<div style=""color:green; font-size:75px;""><b>$0.20</b></div><br><br><br><br><table><tr><td><img src=static/images/oddball_down.png></td><td><img src=static/images/oddball_up.png></td><td><img src=static/images/oddball_up.png></td></tr></table>","81","1","","","","","","","","","","","","","","","","","",""
"","html-keyboard-response",116,392336.26990088,"0.0-6.0-1.16-1.16",62,22,FALSE,1665500693807,750,"q","q","Only if I get the answer right","You win money","A fixed time limit",5,"female","Relaxing the eyes during task, taking time between breaks ","no",1,0,0,0,0,1,2,1,0,0,0,0,0,0,0,0,0,0,0,0,0,0,2,1,0,2,0,1,1,2,3,0,2,0,2,3,1,0,1,0,2,3,2,1,0,3,3,1,0,0,3,1,1,1,4,4,0,3,4,3,1,1,3,"533.869900784935","","q","","true","0","16","up","down","0","q","1","0","1665501087124.27","","","false","60","16","0.2","0.2","false"
"","html-keyboard-response",117,392920,"0.0-6.0-1.17-0.17",62,22,FALSE,1665500693807,750,"q","q","Only if I get the answer right","You win money","A fixed time limit",5,"female","Relaxing the eyes during task, taking time between breaks ","no",1,0,0,0,0,1,2,1,0,0,0,0,0,0,0,0,0,0,0,0,0,0,2,1,0,2,0,1,1,2,3,0,2,0,2,3,1,0,1,0,2,3,2,1,0,3,3,1,0,0,3,1,1,1,4,4,0,3,4,3,1,1,3,"568.4000000953674","<div style=""color:green; font-size:75px;""><b>$0.20</b></div><br><br><br><br><table><tr><td><img src=static/images/oddball_down.png></td><td><img src=static/images/oddball_up.png></td><td><img src=static/images/oddball_down.png></td></tr></table>","87","1","","","","","","","","","","","","","","","","","",""
"","html-keyboard-response",118,392864.666876468,"0.0-6.0-1.17-1.17",62,22,FALSE,1665500693807,750,"q","q","Only if I get the answer right","You win money","A fixed time limit",5,"female","Relaxing the eyes during task, taking time between breaks ","no",1,0,0,0,0,1,2,1,0,0,0,0,0,0,0,0,0,0,0,0,0,0,2,1,0,2,0,1,1,2,3,0,2,0,2,3,1,0,1,0,2,3,2,1,0,3,3,1,0,0,3,1,1,1,4,4,0,3,4,3,1,1,3,"399.066876563331","","w","","true","0","17","down","up","1","w","1","0","1665501087652.67","","","false","60","17","0.216666666666667","0.2","false"
"","html-keyboard-response",119,393591,"0.0-6.0-1.18-0.18",62,22,FALSE,1665500693807,750,"q","q","Only if I get the answer right","You win money","A fixed time limit",5,"female","Relaxing the eyes during task, taking time between breaks ","no",1,0,0,0,0,1,2,1,0,0,0,0,0,0,0,0,0,0,0,0,0,0,2,1,0,2,0,1,1,2,3,0,2,0,2,3,1,0,1,0,2,3,2,1,0,3,3,1,0,0,3,1,1,1,4,4,0,3,4,3,1,1,3,"556.9000000953674","<div style=""color:green; font-size:75px;""><b>$0.20</b></div><br><br><br><br><table><tr><td><img src=static/images/oddball_down.png></td><td><img src=static/images/oddball_up.png></td><td><img src=static/images/oddball_down.png></td></tr></table>","87","1","","","","","","","","","","","","","","","","","",""
"","html-keyboard-response",120,393871.93479078,"0.0-6.0-1.18-1.18",62,22,FALSE,1665500693807,750,"q","q","Only if I get the answer right","You win money","A fixed time limit",5,"female","Relaxing the eyes during task, taking time between breaks ","no",1,0,0,0,0,1,2,1,0,0,0,0,0,0,0,0,0,0,0,0,0,0,2,1,0,2,0,1,1,2,3,0,2,0,2,3,1,0,1,0,2,3,2,1,0,3,3,1,0,0,3,1,1,1,4,4,0,3,4,3,1,1,3,"725.83479087535","","w","","true","0","18","down","up","1","w","1","0","1665501088659.93","","","false","60","18","0.233333333333333","0.2","false"
"","html-keyboard-response",121,394207,"0.0-6.0-1.19-0.19",62,22,FALSE,1665500693807,750,"q","q","Only if I get the answer right","You win money","A fixed time limit",5,"female","Relaxing the eyes during task, taking time between breaks ","no",1,0,0,0,0,1,2,1,0,0,0,0,0,0,0,0,0,0,0,0,0,0,2,1,0,2,0,1,1,2,3,0,2,0,2,3,1,0,1,0,2,3,2,1,0,3,3,1,0,0,3,1,1,1,4,4,0,3,4,3,1,1,3,"503.2999999523163","<div style=""color:green; font-size:75px;""><b>$0.20</b></div><br><br><br><br><table><tr><td><img src=static/images/oddball_down.png></td><td><img src=static/images/oddball_down.png></td><td><img src=static/images/oddball_up.png></td></tr></table>","69","1","","","","","","","","","","","","","","","","","",""
"","html-keyboard-response",122,394382.11439341,"0.0-6.0-1.19-1.19",62,22,FALSE,1665500693807,750,"q","q","Only if I get the answer right","You win money","A fixed time limit",5,"female","Relaxing the eyes during task, taking time between breaks ","no",1,0,0,0,0,1,2,1,0,0,0,0,0,0,0,0,0,0,0,0,0,0,2,1,0,2,0,1,1,2,3,0,2,0,2,3,1,0,1,0,2,3,2,1,0,3,3,1,0,0,3,1,1,1,4,4,0,3,4,3,1,1,3,"564.414393362101","","e","","true","0","19","down","up","2","e","1","0","1665501089170.11","","","false","60","19","0.25","0.2","false"
"","html-keyboard-response",123,394856,"0.0-6.0-1.20-0.20",62,22,FALSE,1665500693807,750,"q","q","Only if I get the answer right","You win money","A fixed time limit",5,"female","Relaxing the eyes during task, taking time between breaks ","no",1,0,0,0,0,1,2,1,0,0,0,0,0,0,0,0,0,0,0,0,0,0,2,1,0,2,0,1,1,2,3,0,2,0,2,3,1,0,1,0,2,3,2,1,0,3,3,1,0,0,3,1,1,1,4,4,0,3,4,3,1,1,3,"534","<div style=""color:green; font-size:75px;""><b>$0.20</b></div><br><br><br><br><table><tr><td><img src=static/images/oddball_down.png></td><td><img src=static/images/oddball_up.png></td><td><img src=static/images/oddball_down.png></td></tr></table>","87","1","","","","","","","","","","","","","","","","","",""
"","html-keyboard-response",124,394978.924987785,"0.0-6.0-1.20-1.20",62,22,FALSE,1665500693807,750,"q","q","Only if I get the answer right","You win money","A fixed time limit",5,"female","Relaxing the eyes during task, taking time between breaks ","no",1,0,0,0,0,1,2,1,0,0,0,0,0,0,0,0,0,0,0,0,0,0,2,1,0,2,0,1,1,2,3,0,2,0,2,3,1,0,1,0,2,3,2,1,0,3,3,1,0,0,3,1,1,1,4,4,0,3,4,3,1,1,3,"541.925","","w","","true","0","20","down","up","1","w","1","0","1665501089767.93","","","false","60","20","0.266666666666667","0.2","false"
"","html-keyboard-response",125,395480,"0.0-6.0-1.21-0.21",62,22,FALSE,1665500693807,750,"q","q","Only if I get the answer right","You win money","A fixed time limit",5,"female","Relaxing the eyes during task, taking time between breaks ","no",1,0,0,0,0,1,2,1,0,0,0,0,0,0,0,0,0,0,0,0,0,0,2,1,0,2,0,1,1,2,3,0,2,0,2,3,1,0,1,0,2,3,2,1,0,3,3,1,0,0,3,1,1,1,4,4,0,3,4,3,1,1,3,"507.69999980926514","<div style=""color:green; font-size:75px;""><b>$0.20</b></div><br><br><br><br><table><tr><td><img src=static/images/oddball_down.png></td><td><img src=static/images/oddball_down.png></td><td><img src=static/images/oddball_up.png></td></tr></table>","69","1","","","","","","","","","","","","","","","","","",""
"","html-keyboard-response",126,395610.803226564,"0.0-6.0-1.21-1.21",62,22,FALSE,1665500693807,750,"q","q","Only if I get the answer right","You win money","A fixed time limit",5,"female","Relaxing the eyes during task, taking time between breaks ","no",1,0,0,0,0,1,2,1,0,0,0,0,0,0,0,0,0,0,0,0,0,0,2,1,0,2,0,1,1,2,3,0,2,0,2,3,1,0,1,0,2,3,2,1,0,3,3,1,0,0,3,1,1,1,4,4,0,3,4,3,1,1,3,"528.503226373592","","e","","true","0","21","down","up","2","e","1","0","1665501090398.8","","","false","60","21","0.283333333333333","0.2","false"
"","html-keyboard-response",127,396096,"0.0-6.0-1.22-0.22",62,22,FALSE,1665500693807,750,"q","q","Only if I get the answer right","You win money","A fixed time limit",5,"female","Relaxing the eyes during task, taking time between breaks ","no",1,0,0,0,0,1,2,1,0,0,0,0,0,0,0,0,0,0,0,0,0,0,2,1,0,2,0,1,1,2,3,0,2,0,2,3,1,0,1,0,2,3,2,1,0,3,3,1,0,0,3,1,1,1,4,4,0,3,4,3,1,1,3,"504.7000000476837","<div style=""color:green; font-size:75px;""><b>$0.20</b></div><br><br><br><br><table><tr><td><img src=static/images/oddball_down.png></td><td><img src=static/images/oddball_up.png></td><td><img src=static/images/oddball_down.png></td></tr></table>","87","1","","","","","","","","","","","","","","","","","",""
"","html-keyboard-response",128,396121.684952503,"0.0-6.0-1.22-1.22",62,22,FALSE,1665500693807,750,"q","q","Only if I get the answer right","You win money","A fixed time limit",5,"female","Relaxing the eyes during task, taking time between breaks ","no",1,0,0,0,0,1,2,1,0,0,0,0,0,0,0,0,0,0,0,0,0,0,2,1,0,2,0,1,1,2,3,0,2,0,2,3,1,0,1,0,2,3,2,1,0,3,3,1,0,0,3,1,1,1,4,4,0,3,4,3,1,1,3,"427.384952550238","","w","","true","0","22","down","up","1","w","1","0","1665501090909.69","","","false","60","22","0.3","0.2","false"
"","html-keyboard-response",129,396760,"0.0-6.0-1.23-0.23",62,22,FALSE,1665500693807,750,"q","q","Only if I get the answer right","You win money","A fixed time limit",5,"female","Relaxing the eyes during task, taking time between breaks ","no",1,0,0,0,0,1,2,1,0,0,0,0,0,0,0,0,0,0,0,0,0,0,2,1,0,2,0,1,1,2,3,0,2,0,2,3,1,0,1,0,2,3,2,1,0,3,3,1,0,0,3,1,1,1,4,4,0,3,4,3,1,1,3,"559.8999998569489","<div style=""color:green; font-size:75px;""><b>$0.20</b></div><br><br><br><br><table><tr><td><img src=static/images/oddball_down.png></td><td><img src=static/images/oddball_up.png></td><td><img src=static/images/oddball_down.png></td></tr></table>","87","1","","","","","","","","","","","","","","","","","",""
"","html-keyboard-response",130,396779.950924559,"0.0-6.0-1.23-1.23",62,22,FALSE,1665500693807,750,"q","q","Only if I get the answer right","You win money","A fixed time limit",5,"female","Relaxing the eyes during task, taking time between breaks ","no",1,0,0,0,0,1,2,1,0,0,0,0,0,0,0,0,0,0,0,0,0,0,2,1,0,2,0,1,1,2,3,0,2,0,2,3,1,0,1,0,2,3,2,1,0,3,3,1,0,0,3,1,1,1,4,4,0,3,4,3,1,1,3,"464.850924416311","","w","","true","0","23","down","up","1","w","1","0","1665501091567.95","","","false","60","23","0.316666666666667","0.2","false"
"","html-keyboard-response",131,397448,"0.0-6.0-1.24-0.24",62,22,FALSE,1665500693807,750,"q","q","Only if I get the answer right","You win money","A fixed time limit",5,"female","Relaxing the eyes during task, taking time between breaks ","no",1,0,0,0,0,1,2,1,0,0,0,0,0,0,0,0,0,0,0,0,0,0,2,1,0,2,0,1,1,2,3,0,2,0,2,3,1,0,1,0,2,3,2,1,0,3,3,1,0,0,3,1,1,1,4,4,0,3,4,3,1,1,3,"571.9000000953674","<div style=""color:green; font-size:75px;""><b>$0.20</b></div><br><br><br><br><table><tr><td><img src=static/images/oddball_down.png></td><td><img src=static/images/oddball_up.png></td><td><img src=static/images/oddball_up.png></td></tr></table>","81","1","","","","","","","","","","","","","","","","","",""
"","html-keyboard-response",132,397614.759847706,"0.0-6.0-1.24-1.24",62,22,FALSE,1665500693807,750,"q","q","Only if I get the answer right","You win money","A fixed time limit",5,"female","Relaxing the eyes during task, taking time between breaks ","no",1,0,0,0,0,1,2,1,0,0,0,0,0,0,0,0,0,0,0,0,0,0,2,1,0,2,0,1,1,2,3,0,2,0,2,3,1,0,1,0,2,3,2,1,0,3,3,1,0,0,3,1,1,1,4,4,0,3,4,3,1,1,3,"625.659847801217","","q","","true","0","24","up","down","0","q","1","0","1665501092402.76","","","false","60","24","0.333333333333333","0.2","false"
"","html-keyboard-response",133,398088,"0.0-6.0-1.25-0.25",62,22,FALSE,1665500693807,750,"q","q","Only if I get the answer right","You win money","A fixed time limit",5,"female","Relaxing the eyes during task, taking time between breaks ","no",1,0,0,0,0,1,2,1,0,0,0,0,0,0,0,0,0,0,0,0,0,0,2,1,0,2,0,1,1,2,3,0,2,0,2,3,1,0,1,0,2,3,2,1,0,3,3,1,0,0,3,1,1,1,4,4,0,3,4,3,1,1,3,"526.3999998569489","<div style=""color:green; font-size:75px;""><b>$0.20</b></div><br><br><br><br><table><tr><td><img src=static/images/oddball_down.png></td><td><img src=static/images/oddball_down.png></td><td><img src=static/images/oddball_up.png></td></tr></table>","69","1","","","","","","","","","","","","","","","","","",""
"","html-keyboard-response",134,398276.024203685,"0.0-6.0-1.25-1.25",62,22,FALSE,1665500693807,750,"q","q","Only if I get the answer right","You win money","A fixed time limit",5,"female","Relaxing the eyes during task, taking time between breaks ","no",1,0,0,0,0,1,2,1,0,0,0,0,0,0,0,0,0,0,0,0,0,0,2,1,0,2,0,1,1,2,3,0,2,0,2,3,1,0,1,0,2,3,2,1,0,3,3,1,0,0,3,1,1,1,4,4,0,3,4,3,1,1,3,"607.42420354176","","e","","true","0","25","down","up","2","e","1","0","1665501093064.02","","","false","60","25","0.35","0.2","false"
"","html-keyboard-response",135,398816,"0.0-6.0-1.26-0.26",62,22,FALSE,1665500693807,750,"q","q","Only if I get the answer right","You win money","A fixed time limit",5,"female","Relaxing the eyes during task, taking time between breaks ","no",1,0,0,0,0,1,2,1,0,0,0,0,0,0,0,0,0,0,0,0,0,0,2,1,0,2,0,1,1,2,3,0,2,0,2,3,1,0,1,0,2,3,2,1,0,3,3,1,0,0,3,1,1,1,4,4,0,3,4,3,1,1,3,"620","<div style=""color:green; font-size:75px;""><b>$0.20</b></div><br><br><br><br><table><tr><td><img src=static/images/oddball_up.png></td><td><img src=static/images/oddball_up.png></td><td><img src=static/images/oddball_down.png></td></tr></table>","69","1","","","","","","","","","","","","","","","","","",""
"","html-keyboard-response",136,398923.001650037,"0.0-6.0-1.26-1.26",62,22,FALSE,1665500693807,750,"q","q","Only if I get the answer right","You win money","A fixed time limit",5,"female","Relaxing the eyes during task, taking time between breaks ","no",1,0,0,0,0,1,2,1,0,0,0,0,0,0,0,0,0,0,0,0,0,0,2,1,0,2,0,1,1,2,3,0,2,0,2,3,1,0,1,0,2,3,2,1,0,3,3,1,0,0,3,1,1,1,4,4,0,3,4,3,1,1,3,"612.002","","e","","true","0","26","up","down","2","e","1","0","1665501093711","","","false","60","26","0.366666666666667","0.2","false"
"","html-keyboard-response",137,399464,"0.0-6.0-1.27-0.27",62,22,FALSE,1665500693807,750,"q","q","Only if I get the answer right","You win money","A fixed time limit",5,"female","Relaxing the eyes during task, taking time between breaks ","no",1,0,0,0,0,1,2,1,0,0,0,0,0,0,0,0,0,0,0,0,0,0,2,1,0,2,0,1,1,2,3,0,2,0,2,3,1,0,1,0,2,3,2,1,0,3,3,1,0,0,3,1,1,1,4,4,0,3,4,3,1,1,3,"531.8999998569489","<div style=""color:green; font-size:75px;""><b>$0.20</b></div><br><br><br><br><table><tr><td><img src=static/images/oddball_up.png></td><td><img src=static/images/oddball_down.png></td><td><img src=static/images/oddball_down.png></td></tr></table>","81","1","","","","","","","","","","","","","","","","","",""
"","html-keyboard-response",138,399482.035742091,"0.0-6.0-1.27-1.27",62,22,FALSE,1665500693807,750,"q","q","Only if I get the answer right","You win money","A fixed time limit",5,"female","Relaxing the eyes during task, taking time between breaks ","no",1,0,0,0,0,1,2,1,0,0,0,0,0,0,0,0,0,0,0,0,0,0,2,1,0,2,0,1,1,2,3,0,2,0,2,3,1,0,1,0,2,3,2,1,0,3,3,1,0,0,3,1,1,1,4,4,0,3,4,3,1,1,3,"448.935741947582","","q","","true","0","27","down","up","0","q","1","0","1665501094270.04","","","false","60","27","0.383333333333333","0.2","false"
"","html-keyboard-response",139,400321,"0.0-6.0-1.28-0.28",62,22,FALSE,1665500693807,750,"q","q","Only if I get the answer right","You win money","A fixed time limit",5,"female","Relaxing the eyes during task, taking time between breaks ","no",1,0,0,0,0,1,2,1,0,0,0,0,0,0,0,0,0,0,0,0,0,0,2,1,0,2,0,1,1,2,3,0,2,0,2,3,1,0,1,0,2,3,2,1,0,3,3,1,0,0,3,1,1,1,4,4,0,3,4,3,1,1,3,"null","<div style=""color:green; font-size:75px;""><b>$0.20</b></div><br><br><br><br><table><tr><td><img src=static/images/oddball_down.png></td><td><img src=static/images/oddball_up.png></td><td><img src=static/images/oddball_up.png></td></tr></table>","null","","","","","","","","","","","","","","","","","","",""
"","html-keyboard-response",140,400439,"0.0-6.0-1.28-1.28",62,22,FALSE,1665500693807,750,"q","q","Only if I get the answer right","You win money","A fixed time limit",5,"female","Relaxing the eyes during task, taking time between breaks ","no",1,0,0,0,0,1,2,1,0,0,0,0,0,0,0,0,0,0,0,0,0,0,2,1,0,2,0,1,1,2,3,0,2,0,2,3,1,0,1,0,2,3,2,1,0,3,3,1,0,0,3,1,1,1,4,4,0,3,4,3,1,1,3,"null","","null","","true","0","28","up","down","0","q","0","0","1665501095227","","","false","60","28","0.4","0.2","true"
"","html-keyboard-response",141,400568,"0.0-6.0-1.29-0.29",62,22,FALSE,1665500693807,750,"q","q","Only if I get the answer right","You win money","A fixed time limit",5,"female","Relaxing the eyes during task, taking time between breaks ","no",1,0,0,0,0,1,2,1,0,0,0,0,0,0,0,0,0,0,0,0,0,0,2,1,0,2,0,1,1,2,3,0,2,0,2,3,1,0,1,0,2,3,2,1,0,3,3,1,0,0,3,1,1,1,4,4,0,3,4,3,1,1,3,"128.29999995231628","<div style=""color:green; font-size:75px;""><b>$0.20</b></div><br><br><br><br><table><tr><td><img src=static/images/oddball_up.png></td><td><img src=static/images/oddball_up.png></td><td><img src=static/images/oddball_down.png></td></tr></table>","69","1","","","","","","","","","","","","","","","","","",""
"","html-keyboard-response",142,400693.483005197,"0.0-6.0-1.29-1.29",62,22,FALSE,1665500693807,750,"q","q","Only if I get the answer right","You win money","A fixed time limit",5,"female","Relaxing the eyes during task, taking time between breaks ","no",1,0,0,0,0,1,2,1,0,0,0,0,0,0,0,0,0,0,0,0,0,0,2,1,0,2,0,1,1,2,3,0,2,0,2,3,1,0,1,0,2,3,2,1,0,3,3,1,0,0,3,1,1,1,4,4,0,3,4,3,1,1,3,"139.783005149541","","e","","true","0","29","up","down","2","e","1","0","1665501095481.48","","","false","60","29","0.4","0.2","false"
"","html-keyboard-response",143,401416,"0.0-6.0-1.30-0.30",62,22,FALSE,1665500693807,750,"q","q","Only if I get the answer right","You win money","A fixed time limit",5,"female","Relaxing the eyes during task, taking time between breaks ","no",1,0,0,0,0,1,2,1,0,0,0,0,0,0,0,0,0,0,0,0,0,0,2,1,0,2,0,1,1,2,3,0,2,0,2,3,1,0,1,0,2,3,2,1,0,3,3,1,0,0,3,1,1,1,4,4,0,3,4,3,1,1,3,"733.2999999523163","<div style=""color:green; font-size:75px;""><b>$0.20</b></div><br><br><br><br><table><tr><td><img src=static/images/oddball_down.png></td><td><img src=static/images/oddball_down.png></td><td><img src=static/images/oddball_up.png></td></tr></table>","69","1","","","","","","","","","","","","","","","","","",""
"","html-keyboard-response",144,401518.625638453,"0.0-6.0-1.30-1.30",62,22,FALSE,1665500693807,750,"q","q","Only if I get the answer right","You win money","A fixed time limit",5,"female","Relaxing the eyes during task, taking time between breaks ","no",1,0,0,0,0,1,2,1,0,0,0,0,0,0,0,0,0,0,0,0,0,0,2,1,0,2,0,1,1,2,3,0,2,0,2,3,1,0,1,0,2,3,2,1,0,3,3,1,0,0,3,1,1,1,4,4,0,3,4,3,1,1,3,"733.925638405421","","e","","true","0","30","down","up","2","e","1","0","1665501096306.63","","","false","60","30","0.416666666666667","0.2","false"
"","html-keyboard-response",145,402207,"0.0-6.0-1.31-0.31",62,22,FALSE,1665500693807,750,"q","q","Only if I get the answer right","You win money","A fixed time limit",5,"female","Relaxing the eyes during task, taking time between breaks ","no",1,0,0,0,0,1,2,1,0,0,0,0,0,0,0,0,0,0,0,0,0,0,2,1,0,2,0,1,1,2,3,0,2,0,2,3,1,0,1,0,2,3,2,1,0,3,3,1,0,0,3,1,1,1,4,4,0,3,4,3,1,1,3,"688.7000000476837","<div style=""color:green; font-size:75px;""><b>$0.20</b></div><br><br><br><br><table><tr><td><img src=static/images/oddball_down.png></td><td><img src=static/images/oddball_down.png></td><td><img src=static/images/oddball_up.png></td></tr></table>","69","1","","","","","","","","","","","","","","","","","",""
"","html-keyboard-response",146,402336.0024634,"0.0-6.0-1.31-1.31",62,22,FALSE,1665500693807,750,"q","q","Only if I get the answer right","You win money","A fixed time limit",5,"female","Relaxing the eyes during task, taking time between breaks ","no",1,0,0,0,0,1,2,1,0,0,0,0,0,0,0,0,0,0,0,0,0,0,2,1,0,2,0,1,1,2,3,0,2,0,2,3,1,0,1,0,2,3,2,1,0,3,3,1,0,0,3,1,1,1,4,4,0,3,4,3,1,1,3,"704.702463448027","","e","","true","0","31","down","up","2","e","0","0","1665501097124","","","false","60","31","0.416666666666667","0.2","false"
"","html-keyboard-response",147,403076,"0.0-6.0-1.32-0.32",62,22,FALSE,1665500693807,750,"q","q","Only if I get the answer right","You win money","A fixed time limit",5,"female","Relaxing the eyes during task, taking time between breaks ","no",1,0,0,0,0,1,2,1,0,0,0,0,0,0,0,0,0,0,0,0,0,0,2,1,0,2,0,1,1,2,3,0,2,0,2,3,1,0,1,0,2,3,2,1,0,3,3,1,0,0,3,1,1,1,4,4,0,3,4,3,1,1,3,"null","<div style=""color:green; font-size:75px;""><b>$0.20</b></div><br><br><br><br><table><tr><td><img src=static/images/oddball_up.png></td><td><img src=static/images/oddball_up.png></td><td><img src=static/images/oddball_down.png></td></tr></table>","null","","","","","","","","","","","","","","","","","","",""
"","html-keyboard-response",148,403192,"0.0-6.0-1.32-1.32",62,22,FALSE,1665500693807,750,"q","q","Only if I get the answer right","You win money","A fixed time limit",5,"female","Relaxing the eyes during task, taking time between breaks ","no",1,0,0,0,0,1,2,1,0,0,0,0,0,0,0,0,0,0,0,0,0,0,2,1,0,2,0,1,1,2,3,0,2,0,2,3,1,0,1,0,2,3,2,1,0,3,3,1,0,0,3,1,1,1,4,4,0,3,4,3,1,1,3,"null","","null","","true","0","32","up","down","2","e","0","0","1665501097980","","","false","60","32","0.433333333333333","0.2","true"
"","html-keyboard-response",149,403696,"0.0-6.0-1.33-0.33",62,22,FALSE,1665500693807,750,"q","q","Only if I get the answer right","You win money","A fixed time limit",5,"female","Relaxing the eyes during task, taking time between breaks ","no",1,0,0,0,0,1,2,1,0,0,0,0,0,0,0,0,0,0,0,0,0,0,2,1,0,2,0,1,1,2,3,0,2,0,2,3,1,0,1,0,2,3,2,1,0,3,3,1,0,0,3,1,1,1,4,4,0,3,4,3,1,1,3,"503.5","<div style=""color:green; font-size:75px;""><b>$0.20</b></div><br><br><br><br><table><tr><td><img src=static/images/oddball_up.png></td><td><img src=static/images/oddball_down.png></td><td><img src=static/images/oddball_down.png></td></tr></table>","81","1","","","","","","","","","","","","","","","","","",""
"","html-keyboard-response",150,403904.163874116,"0.0-6.0-1.33-1.33",62,22,FALSE,1665500693807,750,"q","q","Only if I get the answer right","You win money","A fixed time limit",5,"female","Relaxing the eyes during task, taking time between breaks ","no",1,0,0,0,0,1,2,1,0,0,0,0,0,0,0,0,0,0,0,0,0,0,2,1,0,2,0,1,1,2,3,0,2,0,2,3,1,0,1,0,2,3,2,1,0,3,3,1,0,0,3,1,1,1,4,4,0,3,4,3,1,1,3,"601.66387","","q","","true","0","33","down","up","0","q","1","0","1665501098692.16","","","false","60","33","0.433333333333333","0.2","false"
"","html-keyboard-response",151,404561,"0.0-6.0-1.34-0.34",62,22,FALSE,1665500693807,750,"q","q","Only if I get the answer right","You win money","A fixed time limit",5,"female","Relaxing the eyes during task, taking time between breaks ","no",1,0,0,0,0,1,2,1,0,0,0,0,0,0,0,0,0,0,0,0,0,0,2,1,0,2,0,1,1,2,3,0,2,0,2,3,1,0,1,0,2,3,2,1,0,3,3,1,0,0,3,1,1,1,4,4,0,3,4,3,1,1,3,"null","<div style=""color:green; font-size:75px;""><b>$0.20</b></div><br><br><br><br><table><tr><td><img src=static/images/oddball_down.png></td><td><img src=static/images/oddball_up.png></td><td><img src=static/images/oddball_down.png></td></tr></table>","null","","","","","","","","","","","","","","","","","","",""
"","html-keyboard-response",152,404678,"0.0-6.0-1.34-1.34",62,22,FALSE,1665500693807,750,"q","q","Only if I get the answer right","You win money","A fixed time limit",5,"female","Relaxing the eyes during task, taking time between breaks ","no",1,0,0,0,0,1,2,1,0,0,0,0,0,0,0,0,0,0,0,0,0,0,2,1,0,2,0,1,1,2,3,0,2,0,2,3,1,0,1,0,2,3,2,1,0,3,3,1,0,0,3,1,1,1,4,4,0,3,4,3,1,1,3,"null","","null","","true","0","34","down","up","1","w","0","0","1665501099466","","","false","60","34","0.45","0.2","true"
"","html-keyboard-response",153,405144,"0.0-6.0-1.35-0.35",62,22,FALSE,1665500693807,750,"q","q","Only if I get the answer right","You win money","A fixed time limit",5,"female","Relaxing the eyes during task, taking time between breaks ","no",1,0,0,0,0,1,2,1,0,0,0,0,0,0,0,0,0,0,0,0,0,0,2,1,0,2,0,1,1,2,3,0,2,0,2,3,1,0,1,0,2,3,2,1,0,3,3,1,0,0,3,1,1,1,4,4,0,3,4,3,1,1,3,"464.90000009536743","<div style=""color:green; font-size:75px;""><b>$0.20</b></div><br><br><br><br><table><tr><td><img src=static/images/oddball_down.png></td><td><img src=static/images/oddball_down.png></td><td><img src=static/images/oddball_up.png></td></tr></table>","69","1","","","","","","","","","","","","","","","","","",""
"","html-keyboard-response",154,405351.885325592,"0.0-6.0-1.35-1.35",62,22,FALSE,1665500693807,750,"q","q","Only if I get the answer right","You win money","A fixed time limit",5,"female","Relaxing the eyes during task, taking time between breaks ","no",1,0,0,0,0,1,2,1,0,0,0,0,0,0,0,0,0,0,0,0,0,0,2,1,0,2,0,1,1,2,3,0,2,0,2,3,1,0,1,0,2,3,2,1,0,3,3,1,0,0,3,1,1,1,4,4,0,3,4,3,1,1,3,"558.78532568764","","e","","true","0","35","down","up","2","e","1","0","1665501100139.89","","","false","60","35","0.45","0.2","false"
"","html-keyboard-response",155,406014,"0.0-6.0-1.36-0.36",62,22,FALSE,1665500693807,750,"q","q","Only if I get the answer right","You win money","A fixed time limit",5,"female","Relaxing the eyes during task, taking time between breaks ","no",1,0,0,0,0,1,2,1,0,0,0,0,0,0,0,0,0,0,0,0,0,0,2,1,0,2,0,1,1,2,3,0,2,0,2,3,1,0,1,0,2,3,2,1,0,3,3,1,0,0,3,1,1,1,4,4,0,3,4,3,1,1,3,"null","<div style=""color:green; font-size:75px;""><b>$0.20</b></div><br><br><br><br><table><tr><td><img src=static/images/oddball_up.png></td><td><img src=static/images/oddball_down.png></td><td><img src=static/images/oddball_up.png></td></tr></table>","null","","","","","","","","","","","","","","","","","","",""
"","html-keyboard-response",156,406131,"0.0-6.0-1.36-1.36",62,22,FALSE,1665500693807,750,"q","q","Only if I get the answer right","You win money","A fixed time limit",5,"female","Relaxing the eyes during task, taking time between breaks ","no",1,0,0,0,0,1,2,1,0,0,0,0,0,0,0,0,0,0,0,0,0,0,2,1,0,2,0,1,1,2,3,0,2,0,2,3,1,0,1,0,2,3,2,1,0,3,3,1,0,0,3,1,1,1,4,4,0,3,4,3,1,1,3,"null","","null","","true","0","36","up","down","1","w","0","0","1665501100919","","","false","60","36","0.466666666666667","0.2","true"
"","html-keyboard-response",157,406664,"0.0-6.0-1.37-0.37",62,22,FALSE,1665500693807,750,"q","q","Only if I get the answer right","You win money","A fixed time limit",5,"female","Relaxing the eyes during task, taking time between breaks ","no",1,0,0,0,0,1,2,1,0,0,0,0,0,0,0,0,0,0,0,0,0,0,2,1,0,2,0,1,1,2,3,0,2,0,2,3,1,0,1,0,2,3,2,1,0,3,3,1,0,0,3,1,1,1,4,4,0,3,4,3,1,1,3,"532.2999999523163","<div style=""color:green; font-size:75px;""><b>$0.20</b></div><br><br><br><br><table><tr><td><img src=static/images/oddball_down.png></td><td><img src=static/images/oddball_up.png></td><td><img src=static/images/oddball_up.png></td></tr></table>","81","1","","","","","","","","","","","","","","","","","",""
"","html-keyboard-response",158,406783.489312977,"0.0-6.0-1.37-1.37",62,22,FALSE,1665500693807,750,"q","q","Only if I get the answer right","You win money","A fixed time limit",5,"female","Relaxing the eyes during task, taking time between breaks ","no",1,0,0,0,0,1,2,1,0,0,0,0,0,0,0,0,0,0,0,0,0,0,2,1,0,2,0,1,1,2,3,0,2,0,2,3,1,0,1,0,2,3,2,1,0,3,3,1,0,0,3,1,1,1,4,4,0,3,4,3,1,1,3,"536.78931292937","","q","","true","0","37","up","down","0","q","1","0","1665501101571.49","","","false","60","37","0.466666666666667","0.2","false"
"","html-keyboard-response",159,407280,"0.0-6.0-1.38-0.38",62,22,FALSE,1665500693807,750,"q","q","Only if I get the answer right","You win money","A fixed time limit",5,"female","Relaxing the eyes during task, taking time between breaks ","no",1,0,0,0,0,1,2,1,0,0,0,0,0,0,0,0,0,0,0,0,0,0,2,1,0,2,0,1,1,2,3,0,2,0,2,3,1,0,1,0,2,3,2,1,0,3,3,1,0,0,3,1,1,1,4,4,0,3,4,3,1,1,3,"500.2999999523163","<div style=""color:green; font-size:75px;""><b>$0.20</b></div><br><br><br><br><table><tr><td><img src=static/images/oddball_down.png></td><td><img src=static/images/oddball_up.png></td><td><img src=static/images/oddball_down.png></td></tr></table>","87","1","","","","","","","","","","","","","","","","","",""
"","html-keyboard-response",160,407290.116946507,"0.0-6.0-1.38-1.38",62,22,FALSE,1665500693807,750,"q","q","Only if I get the answer right","You win money","A fixed time limit",5,"female","Relaxing the eyes during task, taking time between breaks ","no",1,0,0,0,0,1,2,1,0,0,0,0,0,0,0,0,0,0,0,0,0,0,2,1,0,2,0,1,1,2,3,0,2,0,2,3,1,0,1,0,2,3,2,1,0,3,3,1,0,0,3,1,1,1,4,4,0,3,4,3,1,1,3,"398.416946459403","","w","","true","0","38","down","up","1","w","1","0","1665501102078.12","","","false","60","38","0.483333333333333","0.2","false"
"","html-keyboard-response",161,408144,"0.0-6.0-1.39-0.39",62,22,FALSE,1665500693807,750,"q","q","Only if I get the answer right","You win money","A fixed time limit",5,"female","Relaxing the eyes during task, taking time between breaks ","no",1,0,0,0,0,1,2,1,0,0,0,0,0,0,0,0,0,0,0,0,0,0,2,1,0,2,0,1,1,2,3,0,2,0,2,3,1,0,1,0,2,3,2,1,0,3,3,1,0,0,3,1,1,1,4,4,0,3,4,3,1,1,3,"751.2999999523163","<div style=""color:green; font-size:75px;""><b>$0.20</b></div><br><br><br><br><table><tr><td><img src=static/images/oddball_down.png></td><td><img src=static/images/oddball_up.png></td><td><img src=static/images/oddball_up.png></td></tr></table>","81","1","","","","","","","","","","","","","","","","","",""
"","html-keyboard-response",162,408173.974303255,"0.0-6.0-1.39-1.39",62,22,FALSE,1665500693807,750,"q","q","Only if I get the answer right","You win money","A fixed time limit",5,"female","Relaxing the eyes during task, taking time between breaks ","no",1,0,0,0,0,1,2,1,0,0,0,0,0,0,0,0,0,0,0,0,0,0,2,1,0,2,0,1,1,2,3,0,2,0,2,3,1,0,1,0,2,3,2,1,0,3,3,1,0,0,3,1,1,1,4,4,0,3,4,3,1,1,3,"678.27430320764","","q","","true","0","39","up","down","0","q","0","0","1665501102961.97","","","false","60","39","0.5","0.2","false"
"","html-keyboard-response",163,408976,"0.0-6.0-1.40-0.40",62,22,FALSE,1665500693807,750,"q","q","Only if I get the answer right","You win money","A fixed time limit",5,"female","Relaxing the eyes during task, taking time between breaks ","no",1,0,0,0,0,1,2,1,0,0,0,0,0,0,0,0,0,0,0,0,0,0,2,1,0,2,0,1,1,2,3,0,2,0,2,3,1,0,1,0,2,3,2,1,0,3,3,1,0,0,3,1,1,1,4,4,0,3,4,3,1,1,3,"727.7000000476837","<div style=""color:green; font-size:75px;""><b>$0.20</b></div><br><br><br><br><table><tr><td><img src=static/images/oddball_down.png></td><td><img src=static/images/oddball_down.png></td><td><img src=static/images/oddball_up.png></td></tr></table>","69","1","","","","","","","","","","","","","","","","","",""
"","html-keyboard-response",164,409075.180354474,"0.0-6.0-1.40-1.40",62,22,FALSE,1665500693807,750,"q","q","Only if I get the answer right","You win money","A fixed time limit",5,"female","Relaxing the eyes during task, taking time between breaks ","no",1,0,0,0,0,1,2,1,0,0,0,0,0,0,0,0,0,0,0,0,0,0,2,1,0,2,0,1,1,2,3,0,2,0,2,3,1,0,1,0,2,3,2,1,0,3,3,1,0,0,3,1,1,1,4,4,0,3,4,3,1,1,3,"720.880354521796","","e","","true","0","40","down","up","2","e","1","0","1665501103863.18","","","false","60","40","0.516666666666667","0.2","false"
"","html-keyboard-response",165,409792,"0.0-6.0-1.41-0.41",62,22,FALSE,1665500693807,750,"q","q","Only if I get the answer right","You win money","A fixed time limit",5,"female","Relaxing the eyes during task, taking time between breaks ","no",1,0,0,0,0,1,2,1,0,0,0,0,0,0,0,0,0,0,0,0,0,0,2,1,0,2,0,1,1,2,3,0,2,0,2,3,1,0,1,0,2,3,2,1,0,3,3,1,0,0,3,1,1,1,4,4,0,3,4,3,1,1,3,"709","<div style=""color:green; font-size:75px;""><b>$0.20</b></div><br><br><br><br><table><tr><td><img src=static/images/oddball_down.png></td><td><img src=static/images/oddball_up.png></td><td><img src=static/images/oddball_down.png></td></tr></table>","87","1","","","","","","","","","","","","","","","","","",""
"","html-keyboard-response",166,409865.346361752,"0.0-6.0-1.41-1.41",62,22,FALSE,1665500693807,750,"q","q","Only if I get the answer right","You win money","A fixed time limit",5,"female","Relaxing the eyes during task, taking time between breaks ","no",1,0,0,0,0,1,2,1,0,0,0,0,0,0,0,0,0,0,0,0,0,0,2,1,0,2,0,1,1,2,3,0,2,0,2,3,1,0,1,0,2,3,2,1,0,3,3,1,0,0,3,1,1,1,4,4,0,3,4,3,1,1,3,"672.346","","w","","true","0","41","down","up","1","w","1","0","1665501104653.35","","","false","60","41","0.533333333333333","0.2","false"
"","html-keyboard-response",167,410607,"0.0-6.0-1.42-0.42",62,22,FALSE,1665500693807,750,"q","q","Only if I get the answer right","You win money","A fixed time limit",5,"female","Relaxing the eyes during task, taking time between breaks ","no",1,0,0,0,0,1,2,1,0,0,0,0,0,0,0,0,0,0,0,0,0,0,2,1,0,2,0,1,1,2,3,0,2,0,2,3,1,0,1,0,2,3,2,1,0,3,3,1,0,0,3,1,1,1,4,4,0,3,4,3,1,1,3,"705.4000000953674","<div style=""color:green; font-size:75px;""><b>$0.20</b></div><br><br><br><br><table><tr><td><img src=static/images/oddball_down.png></td><td><img src=static/images/oddball_up.png></td><td><img src=static/images/oddball_down.png></td></tr></table>","87","1","","","","","","","","","","","","","","","","","",""
"","html-keyboard-response",168,410706.107237842,"0.0-6.0-1.42-1.42",62,22,FALSE,1665500693807,750,"q","q","Only if I get the answer right","You win money","A fixed time limit",5,"female","Relaxing the eyes during task, taking time between breaks ","no",1,0,0,0,0,1,2,1,0,0,0,0,0,0,0,0,0,0,0,0,0,0,2,1,0,2,0,1,1,2,3,0,2,0,2,3,1,0,1,0,2,3,2,1,0,3,3,1,0,0,3,1,1,1,4,4,0,3,4,3,1,1,3,"692.507237937301","","w","","true","0","42","down","up","1","w","1","0","1665501105495.11","","","false","60","42","0.55","0.2","false"
"","html-keyboard-response",169,411424,"0.0-6.0-1.43-0.43",62,22,FALSE,1665500693807,750,"q","q","Only if I get the answer right","You win money","A fixed time limit",5,"female","Relaxing the eyes during task, taking time between breaks ","no",1,0,0,0,0,1,2,1,0,0,0,0,0,0,0,0,0,0,0,0,0,0,2,1,0,2,0,1,1,2,3,0,2,0,2,3,1,0,1,0,2,3,2,1,0,3,3,1,0,0,3,1,1,1,4,4,0,3,4,3,1,1,3,"703.5999999046326","<div style=""color:green; font-size:75px;""><b>$0.20</b></div><br><br><br><br><table><tr><td><img src=static/images/oddball_up.png></td><td><img src=static/images/oddball_up.png></td><td><img src=static/images/oddball_down.png></td></tr></table>","69","1","","","","","","","","","","","","","","","","","",""
"","html-keyboard-response",170,411556.813646154,"0.0-6.0-1.43-1.43",62,22,FALSE,1665500693807,750,"q","q","Only if I get the answer right","You win money","A fixed time limit",5,"female","Relaxing the eyes during task, taking time between breaks ","no",1,0,0,0,0,1,2,1,0,0,0,0,0,0,0,0,0,0,0,0,0,0,2,1,0,2,0,1,1,2,3,0,2,0,2,3,1,0,1,0,2,3,2,1,0,3,3,1,0,0,3,1,1,1,4,4,0,3,4,3,1,1,3,"723.413646058298","","e","","true","0","43","up","down","2","e","1","0","1665501106344.81","","","false","60","43","0.55","0.2","false"
"","html-keyboard-response",171,412248,"0.0-6.0-1.44-0.44",62,22,FALSE,1665500693807,750,"q","q","Only if I get the answer right","You win money","A fixed time limit",5,"female","Relaxing the eyes during task, taking time between breaks ","no",1,0,0,0,0,1,2,1,0,0,0,0,0,0,0,0,0,0,0,0,0,0,2,1,0,2,0,1,1,2,3,0,2,0,2,3,1,0,1,0,2,3,2,1,0,3,3,1,0,0,3,1,1,1,4,4,0,3,4,3,1,1,3,"710.2000000476837","<div style=""color:green; font-size:75px;""><b>$0.20</b></div><br><br><br><br><table><tr><td><img src=static/images/oddball_down.png></td><td><img src=static/images/oddball_up.png></td><td><img src=static/images/oddball_down.png></td></tr></table>","87","1","","","","","","","","","","","","","","","","","",""
"","html-keyboard-response",172,412346.037096075,"0.0-6.0-1.44-1.44",62,22,FALSE,1665500693807,750,"q","q","Only if I get the answer right","You win money","A fixed time limit",5,"female","Relaxing the eyes during task, taking time between breaks ","no",1,0,0,0,0,1,2,1,0,0,0,0,0,0,0,0,0,0,0,0,0,0,2,1,0,2,0,1,1,2,3,0,2,0,2,3,1,0,1,0,2,3,2,1,0,3,3,1,0,0,3,1,1,1,4,4,0,3,4,3,1,1,3,"701.237096122441","","w","","true","0","44","down","up","1","w","1","0","1665501107134.04","","","false","60","44","0.566666666666667","0.2","false"
"","html-keyboard-response",173,413016,"0.0-6.0-1.45-0.45",62,22,FALSE,1665500693807,750,"q","q","Only if I get the answer right","You win money","A fixed time limit",5,"female","Relaxing the eyes during task, taking time between breaks ","no",1,0,0,0,0,1,2,1,0,0,0,0,0,0,0,0,0,0,0,0,0,0,2,1,0,2,0,1,1,2,3,0,2,0,2,3,1,0,1,0,2,3,2,1,0,3,3,1,0,0,3,1,1,1,4,4,0,3,4,3,1,1,3,"660","<div style=""color:green; font-size:75px;""><b>$0.20</b></div><br><br><br><br><table><tr><td><img src=static/images/oddball_down.png></td><td><img src=static/images/oddball_up.png></td><td><img src=static/images/oddball_down.png></td></tr></table>","87","1","","","","","","","","","","","","","","","","","",""
