"success","trial_type","trial_index","time_elapsed","internal_node_id","subject","age","sex","date","deadline","instQ1","instQ2","instQ3","instQ4","instQ5","totalInstQ","gender","strategy","comments","DASS1_s","DASS2_a","DASS3_d","DASS4_a","DASS5_d","DASS6_s","DASS7_a","DASS8_s","DASS9_a","DASS10_d","DASS11_s","DASS12_s","DASS13_d","DASS14_s","DASS15_a","DASS16_d","DASS17_d","DASS18_s","DASS19_a","DASS20_a","DASS21_d","BB1","BB2","BB3","BB4","BB5","BB6","BB7","BB8","BB9","BB10","BB11","BB12","BB13","BB14","BB15","BB16","BB17","BB18","BB19","BB20","BB21","BB22","BB23","BB24","NFC1","NFC2","NFC3","NFC4","NFC5","NFC6","NFC7","NFC8","NFC9","NFC10","NFC11","NFC12","NFC13","NFC14","NFC15","NFC16","NFC17","NFC18","rt","stimulus","key_press","npress","isDataTrial","block","trialinblock","common","odd","oddidx","correct_ans","accuracy","totalTokens","timestamp","responses","question_order","showprog","blocklen","trial","progress","reward","timedout"
"true","fullscreen",0,3510,"0.0-0.0",89,20,"f",1666817763214,750,"q","q","Only if I get the answer right","You win money","A fixed time limit",5,"female","If I noticed I was getting too many wrong from pressing too quickly on the keys, I would take a quick break and I would take more time between each key press to ensure I focused on which shape was the odd one out","No",3,0,1,0,2,0,1,3,2,1,0,3,2,0,0,0,0,0,2,3,0,0,3,2,0,1,0,0,0,2,1,0,2,0,0,2,0,0,1,0,1,2,3,0,0,1,1,1,3,3,1,1,4,4,3,0,3,0,4,3,3,1,4,"","","","","","","","","","","","","","","","","","","","","",""
"","image-keyboard-response",1,420411,"0.0-1.0-0.0",89,20,"f",1666817763214,750,"q","q","Only if I get the answer right","You win money","A fixed time limit",5,"female","If I noticed I was getting too many wrong from pressing too quickly on the keys, I would take a quick break and I would take more time between each key press to ensure I focused on which shape was the odd one out","No",3,0,1,0,2,0,1,3,2,1,0,3,2,0,0,0,0,0,2,3,0,0,3,2,0,1,0,0,0,2,1,0,2,0,0,2,0,0,1,0,1,2,3,0,0,1,1,1,3,3,1,1,4,4,3,0,3,0,4,3,3,1,4,"416889.7999999523","static/images/instructions/Slide1.png","39","","","","","","","","","","","","","","","","","","",""
"","image-keyboard-response",2,428348,"0.0-1.1-0.1",89,20,"f",1666817763214,750,"q","q","Only if I get the answer right","You win money","A fixed time limit",5,"female","If I noticed I was getting too many wrong from pressing too quickly on the keys, I would take a quick break and I would take more time between each key press to ensure I focused on which shape was the odd one out","No",3,0,1,0,2,0,1,3,2,1,0,3,2,0,0,0,0,0,2,3,0,0,3,2,0,1,0,0,0,2,1,0,2,0,0,2,0,0,1,0,1,2,3,0,0,1,1,1,3,3,1,1,4,4,3,0,3,0,4,3,3,1,4,"7935.700000047684","static/images/instructions/Slide2.png","39","","","","","","","","","","","","","","","","","","",""
"","image-keyboard-response",3,434164,"0.0-1.2-0.2",89,20,"f",1666817763214,750,"q","q","Only if I get the answer right","You win money","A fixed time limit",5,"female","If I noticed I was getting too many wrong from pressing too quickly on the keys, I would take a quick break and I would take more time between each key press to ensure I focused on which shape was the odd one out","No",3,0,1,0,2,0,1,3,2,1,0,3,2,0,0,0,0,0,2,3,0,0,3,2,0,1,0,0,0,2,1,0,2,0,0,2,0,0,1,0,1,2,3,0,0,1,1,1,3,3,1,1,4,4,3,0,3,0,4,3,3,1,4,"5815.200000047684","static/images/instructions/Slide3.png","39","","","","","","","","","","","","","","","","","","",""
"","image-keyboard-response",4,438244,"0.0-1.3-0.3",89,20,"f",1666817763214,750,"q","q","Only if I get the answer right","You win money","A fixed time limit",5,"female","If I noticed I was getting too many wrong from pressing too quickly on the keys, I would take a quick break and I would take more time between each key press to ensure I focused on which shape was the odd one out","No",3,0,1,0,2,0,1,3,2,1,0,3,2,0,0,0,0,0,2,3,0,0,3,2,0,1,0,0,0,2,1,0,2,0,0,2,0,0,1,0,1,2,3,0,0,1,1,1,3,3,1,1,4,4,3,0,3,0,4,3,3,1,4,"4079.2999999523163","static/images/instructions/Slide4.png","39","","","","","","","","","","","","","","","","","","",""
"","image-keyboard-response",5,440148,"0.0-1.4-0.4",89,20,"f",1666817763214,750,"q","q","Only if I get the answer right","You win money","A fixed time limit",5,"female","If I noticed I was getting too many wrong from pressing too quickly on the keys, I would take a quick break and I would take more time between each key press to ensure I focused on which shape was the odd one out","No",3,0,1,0,2,0,1,3,2,1,0,3,2,0,0,0,0,0,2,3,0,0,3,2,0,1,0,0,0,2,1,0,2,0,0,2,0,0,1,0,1,2,3,0,0,1,1,1,3,3,1,1,4,4,3,0,3,0,4,3,3,1,4,"1903.2999999523163","static/images/instructions/Slide5.png","39","","","","","","","","","","","","","","","","","","",""
"","image-keyboard-response",6,442171,"0.0-1.5-0.5",89,20,"f",1666817763214,750,"q","q","Only if I get the answer right","You win money","A fixed time limit",5,"female","If I noticed I was getting too many wrong from pressing too quickly on the keys, I would take a quick break and I would take more time between each key press to ensure I focused on which shape was the odd one out","No",3,0,1,0,2,0,1,3,2,1,0,3,2,0,0,0,0,0,2,3,0,0,3,2,0,1,0,0,0,2,1,0,2,0,0,2,0,0,1,0,1,2,3,0,0,1,1,1,3,3,1,1,4,4,3,0,3,0,4,3,3,1,4,"2023.2000000476837","static/images/instructions/Slide6.png","39","","","","","","","","","","","","","","","","","","",""
"","image-keyboard-response",7,489935,"0.0-1.6-0.6",89,20,"f",1666817763214,750,"q","q","Only if I get the answer right","You win money","A fixed time limit",5,"female","If I noticed I was getting too many wrong from pressing too quickly on the keys, I would take a quick break and I would take more time between each key press to ensure I focused on which shape was the odd one out","No",3,0,1,0,2,0,1,3,2,1,0,3,2,0,0,0,0,0,2,3,0,0,3,2,0,1,0,0,0,2,1,0,2,0,0,2,0,0,1,0,1,2,3,0,0,1,1,1,3,3,1,1,4,4,3,0,3,0,4,3,3,1,4,"47775.60000014305","static/images/instructions/Slide7.png","39","","","","","","","","","","","","","","","","","","",""
"","html-keyboard-response",8,490944,"0.0-2.0-0.0",89,20,"f",1666817763214,750,"q","q","Only if I get the answer right","You win money","A fixed time limit",5,"female","If I noticed I was getting too many wrong from pressing too quickly on the keys, I would take a quick break and I would take more time between each key press to ensure I focused on which shape was the odd one out","No",3,0,1,0,2,0,1,3,2,1,0,3,2,0,0,0,0,0,2,3,0,0,3,2,0,1,0,0,0,2,1,0,2,0,0,2,0,0,1,0,1,2,3,0,0,1,1,1,3,3,1,1,4,4,3,0,3,0,4,3,3,1,4,"1007.2000000476837","<br><br><br><br><table><tr><td><img src=static/images/oddball_up.png></td><td><img src=static/images/oddball_down.png></td><td><img src=static/images/oddball_down.png></td></tr></table>","81","1","","","","","","","","","","","","","","","","","",""
"","html-keyboard-response",9,493448,"0.0-2.0-1.0",89,20,"f",1666817763214,750,"q","q","Only if I get the answer right","You win money","A fixed time limit",5,"female","If I noticed I was getting too many wrong from pressing too quickly on the keys, I would take a quick break and I would take more time between each key press to ensure I focused on which shape was the odd one out","No",3,0,1,0,2,0,1,3,2,1,0,3,2,0,0,0,0,0,2,3,0,0,3,2,0,1,0,0,0,2,1,0,2,0,0,2,0,0,1,0,1,2,3,0,0,1,1,1,3,3,1,1,4,4,3,0,3,0,4,3,3,1,4,"null","<div style=""font-size:75px;""><b>Correct</b></div>","null","","","","","","","","","","","","","","","","","","",""
"","html-keyboard-response",10,494450,"0.0-2.0-2.0",89,20,"f",1666817763214,750,"q","q","Only if I get the answer right","You win money","A fixed time limit",5,"female","If I noticed I was getting too many wrong from pressing too quickly on the keys, I would take a quick break and I would take more time between each key press to ensure I focused on which shape was the odd one out","No",3,0,1,0,2,0,1,3,2,1,0,3,2,0,0,0,0,0,2,3,0,0,3,2,0,1,0,0,0,2,1,0,2,0,0,2,0,0,1,0,1,2,3,0,0,1,1,1,3,3,1,1,4,4,3,0,3,0,4,3,3,1,4,"1007.2000000476837","","q","","true","practice","0","down","up","0","q","1","0","1666818258870","","","","","","","",""
"","html-keyboard-response",11,495079,"0.0-2.1-0.1",89,20,"f",1666817763214,750,"q","q","Only if I get the answer right","You win money","A fixed time limit",5,"female","If I noticed I was getting too many wrong from pressing too quickly on the keys, I would take a quick break and I would take more time between each key press to ensure I focused on which shape was the odd one out","No",3,0,1,0,2,0,1,3,2,1,0,3,2,0,0,0,0,0,2,3,0,0,3,2,0,1,0,0,0,2,1,0,2,0,0,2,0,0,1,0,1,2,3,0,0,1,1,1,3,3,1,1,4,4,3,0,3,0,4,3,3,1,4,"628.7000000476837","<br><br><br><br><table><tr><td><img src=static/images/oddball_down.png></td><td><img src=static/images/oddball_up.png></td><td><img src=static/images/oddball_down.png></td></tr></table>","87","1","","","","","","","","","","","","","","","","","",""
"","html-keyboard-response",12,497584,"0.0-2.1-1.1",89,20,"f",1666817763214,750,"q","q","Only if I get the answer right","You win money","A fixed time limit",5,"female","If I noticed I was getting too many wrong from pressing too quickly on the keys, I would take a quick break and I would take more time between each key press to ensure I focused on which shape was the odd one out","No",3,0,1,0,2,0,1,3,2,1,0,3,2,0,0,0,0,0,2,3,0,0,3,2,0,1,0,0,0,2,1,0,2,0,0,2,0,0,1,0,1,2,3,0,0,1,1,1,3,3,1,1,4,4,3,0,3,0,4,3,3,1,4,"null","<div style=""font-size:75px;""><b>Correct</b></div>","null","","","","","","","","","","","","","","","","","","",""
"","html-keyboard-response",13,498590,"0.0-2.1-2.1",89,20,"f",1666817763214,750,"q","q","Only if I get the answer right","You win money","A fixed time limit",5,"female","If I noticed I was getting too many wrong from pressing too quickly on the keys, I would take a quick break and I would take more time between each key press to ensure I focused on which shape was the odd one out","No",3,0,1,0,2,0,1,3,2,1,0,3,2,0,0,0,0,0,2,3,0,0,3,2,0,1,0,0,0,2,1,0,2,0,0,2,0,0,1,0,1,2,3,0,0,1,1,1,3,3,1,1,4,4,3,0,3,0,4,3,3,1,4,"628.7000000476837","","w","","true","practice","1","down","up","1","w","1","0","1666818263010","","","","","","","",""
"","html-keyboard-response",14,499191,"0.0-2.2-0.2",89,20,"f",1666817763214,750,"q","q","Only if I get the answer right","You win money","A fixed time limit",5,"female","If I noticed I was getting too many wrong from pressing too quickly on the keys, I would take a quick break and I would take more time between each key press to ensure I focused on which shape was the odd one out","No",3,0,1,0,2,0,1,3,2,1,0,3,2,0,0,0,0,0,2,3,0,0,3,2,0,1,0,0,0,2,1,0,2,0,0,2,0,0,1,0,1,2,3,0,0,1,1,1,3,3,1,1,4,4,3,0,3,0,4,3,3,1,4,"600.3999998569489","<br><br><br><br><table><tr><td><img src=static/images/oddball_down.png></td><td><img src=static/images/oddball_up.png></td><td><img src=static/images/oddball_up.png></td></tr></table>","81","1","","","","","","","","","","","","","","","","","",""
"","html-keyboard-response",15,501693,"0.0-2.2-1.2",89,20,"f",1666817763214,750,"q","q","Only if I get the answer right","You win money","A fixed time limit",5,"female","If I noticed I was getting too many wrong from pressing too quickly on the keys, I would take a quick break and I would take more time between each key press to ensure I focused on which shape was the odd one out","No",3,0,1,0,2,0,1,3,2,1,0,3,2,0,0,0,0,0,2,3,0,0,3,2,0,1,0,0,0,2,1,0,2,0,0,2,0,0,1,0,1,2,3,0,0,1,1,1,3,3,1,1,4,4,3,0,3,0,4,3,3,1,4,"null","<div style=""font-size:75px;""><b>Correct</b></div>","null","","","","","","","","","","","","","","","","","","",""
"","html-keyboard-response",16,502698,"0.0-2.2-2.2",89,20,"f",1666817763214,750,"q","q","Only if I get the answer right","You win money","A fixed time limit",5,"female","If I noticed I was getting too many wrong from pressing too quickly on the keys, I would take a quick break and I would take more time between each key press to ensure I focused on which shape was the odd one out","No",3,0,1,0,2,0,1,3,2,1,0,3,2,0,0,0,0,0,2,3,0,0,3,2,0,1,0,0,0,2,1,0,2,0,0,2,0,0,1,0,1,2,3,0,0,1,1,1,3,3,1,1,4,4,3,0,3,0,4,3,3,1,4,"600.3999998569489","","q","","true","practice","2","up","down","0","q","1","0","1666818267118","","","","","","","",""
"","html-keyboard-response",17,503207,"0.0-2.3-0.3",89,20,"f",1666817763214,750,"q","q","Only if I get the answer right","You win money","A fixed time limit",5,"female","If I noticed I was getting too many wrong from pressing too quickly on the keys, I would take a quick break and I would take more time between each key press to ensure I focused on which shape was the odd one out","No",3,0,1,0,2,0,1,3,2,1,0,3,2,0,0,0,0,0,2,3,0,0,3,2,0,1,0,0,0,2,1,0,2,0,0,2,0,0,1,0,1,2,3,0,0,1,1,1,3,3,1,1,4,4,3,0,3,0,4,3,3,1,4,"508.2999999523163","<br><br><br><br><table><tr><td><img src=static/images/oddball_up.png></td><td><img src=static/images/oddball_up.png></td><td><img src=static/images/oddball_down.png></td></tr></table>","69","1","","","","","","","","","","","","","","","","","",""
"","html-keyboard-response",18,505719,"0.0-2.3-1.3",89,20,"f",1666817763214,750,"q","q","Only if I get the answer right","You win money","A fixed time limit",5,"female","If I noticed I was getting too many wrong from pressing too quickly on the keys, I would take a quick break and I would take more time between each key press to ensure I focused on which shape was the odd one out","No",3,0,1,0,2,0,1,3,2,1,0,3,2,0,0,0,0,0,2,3,0,0,3,2,0,1,0,0,0,2,1,0,2,0,0,2,0,0,1,0,1,2,3,0,0,1,1,1,3,3,1,1,4,4,3,0,3,0,4,3,3,1,4,"null","<div style=""font-size:75px;""><b>Correct</b></div>","null","","","","","","","","","","","","","","","","","","",""
"","html-keyboard-response",19,506721,"0.0-2.3-2.3",89,20,"f",1666817763214,750,"q","q","Only if I get the answer right","You win money","A fixed time limit",5,"female","If I noticed I was getting too many wrong from pressing too quickly on the keys, I would take a quick break and I would take more time between each key press to ensure I focused on which shape was the odd one out","No",3,0,1,0,2,0,1,3,2,1,0,3,2,0,0,0,0,0,2,3,0,0,3,2,0,1,0,0,0,2,1,0,2,0,0,2,0,0,1,0,1,2,3,0,0,1,1,1,3,3,1,1,4,4,3,0,3,0,4,3,3,1,4,"508.2999999523163","","e","","true","practice","3","up","down","2","e","1","0","1666818271141","","","","","","","",""
"","html-keyboard-response",20,507567,"0.0-2.4-0.4",89,20,"f",1666817763214,750,"q","q","Only if I get the answer right","You win money","A fixed time limit",5,"female","If I noticed I was getting too many wrong from pressing too quickly on the keys, I would take a quick break and I would take more time between each key press to ensure I focused on which shape was the odd one out","No",3,0,1,0,2,0,1,3,2,1,0,3,2,0,0,0,0,0,2,3,0,0,3,2,0,1,0,0,0,2,1,0,2,0,0,2,0,0,1,0,1,2,3,0,0,1,1,1,3,3,1,1,4,4,3,0,3,0,4,3,3,1,4,"845.2000000476837","<br><br><br><br><table><tr><td><img src=static/images/oddball_down.png></td><td><img src=static/images/oddball_up.png></td><td><img src=static/images/oddball_down.png></td></tr></table>","87","1","","","","","","","","","","","","","","","","","",""
"","html-keyboard-response",21,510077,"0.0-2.4-1.4",89,20,"f",1666817763214,750,"q","q","Only if I get the answer right","You win money","A fixed time limit",5,"female","If I noticed I was getting too many wrong from pressing too quickly on the keys, I would take a quick break and I would take more time between each key press to ensure I focused on which shape was the odd one out","No",3,0,1,0,2,0,1,3,2,1,0,3,2,0,0,0,0,0,2,3,0,0,3,2,0,1,0,0,0,2,1,0,2,0,0,2,0,0,1,0,1,2,3,0,0,1,1,1,3,3,1,1,4,4,3,0,3,0,4,3,3,1,4,"null","<div style=""font-size:75px;""><b>Correct</b></div>","null","","","","","","","","","","","","","","","","","","",""
"","html-keyboard-response",22,511082,"0.0-2.4-2.4",89,20,"f",1666817763214,750,"q","q","Only if I get the answer right","You win money","A fixed time limit",5,"female","If I noticed I was getting too many wrong from pressing too quickly on the keys, I would take a quick break and I would take more time between each key press to ensure I focused on which shape was the odd one out","No",3,0,1,0,2,0,1,3,2,1,0,3,2,0,0,0,0,0,2,3,0,0,3,2,0,1,0,0,0,2,1,0,2,0,0,2,0,0,1,0,1,2,3,0,0,1,1,1,3,3,1,1,4,4,3,0,3,0,4,3,3,1,4,"845.2000000476837","","w","","true","practice","4","down","up","1","w","1","0","1666818275502","","","","","","","",""
"","html-keyboard-response",23,511527,"0.0-2.5-0.5",89,20,"f",1666817763214,750,"q","q","Only if I get the answer right","You win money","A fixed time limit",5,"female","If I noticed I was getting too many wrong from pressing too quickly on the keys, I would take a quick break and I would take more time between each key press to ensure I focused on which shape was the odd one out","No",3,0,1,0,2,0,1,3,2,1,0,3,2,0,0,0,0,0,2,3,0,0,3,2,0,1,0,0,0,2,1,0,2,0,0,2,0,0,1,0,1,2,3,0,0,1,1,1,3,3,1,1,4,4,3,0,3,0,4,3,3,1,4,"444.7000000476837","<br><br><br><br><table><tr><td><img src=static/images/oddball_up.png></td><td><img src=static/images/oddball_down.png></td><td><img src=static/images/oddball_down.png></td></tr></table>","81","1","","","","","","","","","","","","","","","","","",""
"","html-keyboard-response",24,514031,"0.0-2.5-1.5",89,20,"f",1666817763214,750,"q","q","Only if I get the answer right","You win money","A fixed time limit",5,"female","If I noticed I was getting too many wrong from pressing too quickly on the keys, I would take a quick break and I would take more time between each key press to ensure I focused on which shape was the odd one out","No",3,0,1,0,2,0,1,3,2,1,0,3,2,0,0,0,0,0,2,3,0,0,3,2,0,1,0,0,0,2,1,0,2,0,0,2,0,0,1,0,1,2,3,0,0,1,1,1,3,3,1,1,4,4,3,0,3,0,4,3,3,1,4,"null","<div style=""font-size:75px;""><b>Correct</b></div>","null","","","","","","","","","","","","","","","","","","",""
"","html-keyboard-response",25,515039,"0.0-2.5-2.5",89,20,"f",1666817763214,750,"q","q","Only if I get the answer right","You win money","A fixed time limit",5,"female","If I noticed I was getting too many wrong from pressing too quickly on the keys, I would take a quick break and I would take more time between each key press to ensure I focused on which shape was the odd one out","No",3,0,1,0,2,0,1,3,2,1,0,3,2,0,0,0,0,0,2,3,0,0,3,2,0,1,0,0,0,2,1,0,2,0,0,2,0,0,1,0,1,2,3,0,0,1,1,1,3,3,1,1,4,4,3,0,3,0,4,3,3,1,4,"444.7000000476837","","q","","true","practice","5","down","up","0","q","1","0","1666818279459","","","","","","","",""
"","html-keyboard-response",26,515727,"0.0-2.6-0.6",89,20,"f",1666817763214,750,"q","q","Only if I get the answer right","You win money","A fixed time limit",5,"female","If I noticed I was getting too many wrong from pressing too quickly on the keys, I would take a quick break and I would take more time between each key press to ensure I focused on which shape was the odd one out","No",3,0,1,0,2,0,1,3,2,1,0,3,2,0,0,0,0,0,2,3,0,0,3,2,0,1,0,0,0,2,1,0,2,0,0,2,0,0,1,0,1,2,3,0,0,1,1,1,3,3,1,1,4,4,3,0,3,0,4,3,3,1,4,"688.3000001907349","<br><br><br><br><table><tr><td><img src=static/images/oddball_down.png></td><td><img src=static/images/oddball_down.png></td><td><img src=static/images/oddball_up.png></td></tr></table>","69","1","","","","","","","","","","","","","","","","","",""
"","html-keyboard-response",27,518240,"0.0-2.6-1.6",89,20,"f",1666817763214,750,"q","q","Only if I get the answer right","You win money","A fixed time limit",5,"female","If I noticed I was getting too many wrong from pressing too quickly on the keys, I would take a quick break and I would take more time between each key press to ensure I focused on which shape was the odd one out","No",3,0,1,0,2,0,1,3,2,1,0,3,2,0,0,0,0,0,2,3,0,0,3,2,0,1,0,0,0,2,1,0,2,0,0,2,0,0,1,0,1,2,3,0,0,1,1,1,3,3,1,1,4,4,3,0,3,0,4,3,3,1,4,"null","<div style=""font-size:75px;""><b>Correct</b></div>","null","","","","","","","","","","","","","","","","","","",""
"","html-keyboard-response",28,519246,"0.0-2.6-2.6",89,20,"f",1666817763214,750,"q","q","Only if I get the answer right","You win money","A fixed time limit",5,"female","If I noticed I was getting too many wrong from pressing too quickly on the keys, I would take a quick break and I would take more time between each key press to ensure I focused on which shape was the odd one out","No",3,0,1,0,2,0,1,3,2,1,0,3,2,0,0,0,0,0,2,3,0,0,3,2,0,1,0,0,0,2,1,0,2,0,0,2,0,0,1,0,1,2,3,0,0,1,1,1,3,3,1,1,4,4,3,0,3,0,4,3,3,1,4,"688.3000001907349","","e","","true","practice","6","down","up","2","e","1","0","1666818283666","","","","","","","",""
"","html-keyboard-response",29,519839,"0.0-2.7-0.7",89,20,"f",1666817763214,750,"q","q","Only if I get the answer right","You win money","A fixed time limit",5,"female","If I noticed I was getting too many wrong from pressing too quickly on the keys, I would take a quick break and I would take more time between each key press to ensure I focused on which shape was the odd one out","No",3,0,1,0,2,0,1,3,2,1,0,3,2,0,0,0,0,0,2,3,0,0,3,2,0,1,0,0,0,2,1,0,2,0,0,2,0,0,1,0,1,2,3,0,0,1,1,1,3,3,1,1,4,4,3,0,3,0,4,3,3,1,4,"592","<br><br><br><br><table><tr><td><img src=static/images/oddball_down.png></td><td><img src=static/images/oddball_up.png></td><td><img src=static/images/oddball_up.png></td></tr></table>","81","1","","","","","","","","","","","","","","","","","",""
"","html-keyboard-response",30,522350,"0.0-2.7-1.7",89,20,"f",1666817763214,750,"q","q","Only if I get the answer right","You win money","A fixed time limit",5,"female","If I noticed I was getting too many wrong from pressing too quickly on the keys, I would take a quick break and I would take more time between each key press to ensure I focused on which shape was the odd one out","No",3,0,1,0,2,0,1,3,2,1,0,3,2,0,0,0,0,0,2,3,0,0,3,2,0,1,0,0,0,2,1,0,2,0,0,2,0,0,1,0,1,2,3,0,0,1,1,1,3,3,1,1,4,4,3,0,3,0,4,3,3,1,4,"null","<div style=""font-size:75px;""><b>Correct</b></div>","null","","","","","","","","","","","","","","","","","","",""
"","html-keyboard-response",31,523353,"0.0-2.7-2.7",89,20,"f",1666817763214,750,"q","q","Only if I get the answer right","You win money","A fixed time limit",5,"female","If I noticed I was getting too many wrong from pressing too quickly on the keys, I would take a quick break and I would take more time between each key press to ensure I focused on which shape was the odd one out","No",3,0,1,0,2,0,1,3,2,1,0,3,2,0,0,0,0,0,2,3,0,0,3,2,0,1,0,0,0,2,1,0,2,0,0,2,0,0,1,0,1,2,3,0,0,1,1,1,3,3,1,1,4,4,3,0,3,0,4,3,3,1,4,"592","","q","","true","practice","7","up","down","0","q","1","0","1666818287773","","","","","","","",""
"","html-keyboard-response",32,523919,"0.0-2.8-0.8",89,20,"f",1666817763214,750,"q","q","Only if I get the answer right","You win money","A fixed time limit",5,"female","If I noticed I was getting too many wrong from pressing too quickly on the keys, I would take a quick break and I would take more time between each key press to ensure I focused on which shape was the odd one out","No",3,0,1,0,2,0,1,3,2,1,0,3,2,0,0,0,0,0,2,3,0,0,3,2,0,1,0,0,0,2,1,0,2,0,0,2,0,0,1,0,1,2,3,0,0,1,1,1,3,3,1,1,4,4,3,0,3,0,4,3,3,1,4,"565.6999998092651","<br><br><br><br><table><tr><td><img src=static/images/oddball_down.png></td><td><img src=static/images/oddball_up.png></td><td><img src=static/images/oddball_up.png></td></tr></table>","81","1","","","","","","","","","","","","","","","","","",""
"","html-keyboard-response",33,526435,"0.0-2.8-1.8",89,20,"f",1666817763214,750,"q","q","Only if I get the answer right","You win money","A fixed time limit",5,"female","If I noticed I was getting too many wrong from pressing too quickly on the keys, I would take a quick break and I would take more time between each key press to ensure I focused on which shape was the odd one out","No",3,0,1,0,2,0,1,3,2,1,0,3,2,0,0,0,0,0,2,3,0,0,3,2,0,1,0,0,0,2,1,0,2,0,0,2,0,0,1,0,1,2,3,0,0,1,1,1,3,3,1,1,4,4,3,0,3,0,4,3,3,1,4,"null","<div style=""font-size:75px;""><b>Correct</b></div>","null","","","","","","","","","","","","","","","","","","",""
"","html-keyboard-response",34,527444,"0.0-2.8-2.8",89,20,"f",1666817763214,750,"q","q","Only if I get the answer right","You win money","A fixed time limit",5,"female","If I noticed I was getting too many wrong from pressing too quickly on the keys, I would take a quick break and I would take more time between each key press to ensure I focused on which shape was the odd one out","No",3,0,1,0,2,0,1,3,2,1,0,3,2,0,0,0,0,0,2,3,0,0,3,2,0,1,0,0,0,2,1,0,2,0,0,2,0,0,1,0,1,2,3,0,0,1,1,1,3,3,1,1,4,4,3,0,3,0,4,3,3,1,4,"565.6999998092651","","q","","true","practice","8","up","down","0","q","1","0","1666818291864","","","","","","","",""
"","html-keyboard-response",35,528047,"0.0-2.9-0.9",89,20,"f",1666817763214,750,"q","q","Only if I get the answer right","You win money","A fixed time limit",5,"female","If I noticed I was getting too many wrong from pressing too quickly on the keys, I would take a quick break and I would take more time between each key press to ensure I focused on which shape was the odd one out","No",3,0,1,0,2,0,1,3,2,1,0,3,2,0,0,0,0,0,2,3,0,0,3,2,0,1,0,0,0,2,1,0,2,0,0,2,0,0,1,0,1,2,3,0,0,1,1,1,3,3,1,1,4,4,3,0,3,0,4,3,3,1,4,"602.3999998569489","<br><br><br><br><table><tr><td><img src=static/images/oddball_up.png></td><td><img src=static/images/oddball_down.png></td><td><img src=static/images/oddball_down.png></td></tr></table>","81","1","","","","","","","","","","","","","","","","","",""
"","html-keyboard-response",36,530559,"0.0-2.9-1.9",89,20,"f",1666817763214,750,"q","q","Only if I get the answer right","You win money","A fixed time limit",5,"female","If I noticed I was getting too many wrong from pressing too quickly on the keys, I would take a quick break and I would take more time between each key press to ensure I focused on which shape was the odd one out","No",3,0,1,0,2,0,1,3,2,1,0,3,2,0,0,0,0,0,2,3,0,0,3,2,0,1,0,0,0,2,1,0,2,0,0,2,0,0,1,0,1,2,3,0,0,1,1,1,3,3,1,1,4,4,3,0,3,0,4,3,3,1,4,"null","<div style=""font-size:75px;""><b>Correct</b></div>","null","","","","","","","","","","","","","","","","","","",""
"","html-keyboard-response",37,531568,"0.0-2.9-2.9",89,20,"f",1666817763214,750,"q","q","Only if I get the answer right","You win money","A fixed time limit",5,"female","If I noticed I was getting too many wrong from pressing too quickly on the keys, I would take a quick break and I would take more time between each key press to ensure I focused on which shape was the odd one out","No",3,0,1,0,2,0,1,3,2,1,0,3,2,0,0,0,0,0,2,3,0,0,3,2,0,1,0,0,0,2,1,0,2,0,0,2,0,0,1,0,1,2,3,0,0,1,1,1,3,3,1,1,4,4,3,0,3,0,4,3,3,1,4,"602.3999998569489","","q","","true","practice","9","down","up","0","q","1","0","1666818295988","","","","","","","",""
"","html-keyboard-response",38,532271,"0.0-2.10-0.10",89,20,"f",1666817763214,750,"q","q","Only if I get the answer right","You win money","A fixed time limit",5,"female","If I noticed I was getting too many wrong from pressing too quickly on the keys, I would take a quick break and I would take more time between each key press to ensure I focused on which shape was the odd one out","No",3,0,1,0,2,0,1,3,2,1,0,3,2,0,0,0,0,0,2,3,0,0,3,2,0,1,0,0,0,2,1,0,2,0,0,2,0,0,1,0,1,2,3,0,0,1,1,1,3,3,1,1,4,4,3,0,3,0,4,3,3,1,4,"703.2000000476837","<br><br><br><br><table><tr><td><img src=static/images/oddball_down.png></td><td><img src=static/images/oddball_down.png></td><td><img src=static/images/oddball_up.png></td></tr></table>","69","1","","","","","","","","","","","","","","","","","",""
"","html-keyboard-response",39,534785,"0.0-2.10-1.10",89,20,"f",1666817763214,750,"q","q","Only if I get the answer right","You win money","A fixed time limit",5,"female","If I noticed I was getting too many wrong from pressing too quickly on the keys, I would take a quick break and I would take more time between each key press to ensure I focused on which shape was the odd one out","No",3,0,1,0,2,0,1,3,2,1,0,3,2,0,0,0,0,0,2,3,0,0,3,2,0,1,0,0,0,2,1,0,2,0,0,2,0,0,1,0,1,2,3,0,0,1,1,1,3,3,1,1,4,4,3,0,3,0,4,3,3,1,4,"null","<div style=""font-size:75px;""><b>Correct</b></div>","null","","","","","","","","","","","","","","","","","","",""
"","html-keyboard-response",40,535793,"0.0-2.10-2.10",89,20,"f",1666817763214,750,"q","q","Only if I get the answer right","You win money","A fixed time limit",5,"female","If I noticed I was getting too many wrong from pressing too quickly on the keys, I would take a quick break and I would take more time between each key press to ensure I focused on which shape was the odd one out","No",3,0,1,0,2,0,1,3,2,1,0,3,2,0,0,0,0,0,2,3,0,0,3,2,0,1,0,0,0,2,1,0,2,0,0,2,0,0,1,0,1,2,3,0,0,1,1,1,3,3,1,1,4,4,3,0,3,0,4,3,3,1,4,"703.2000000476837","","e","","true","practice","10","down","up","2","e","1","0","1666818300213","","","","","","","",""
"","html-keyboard-response",41,536279,"0.0-2.11-0.11",89,20,"f",1666817763214,750,"q","q","Only if I get the answer right","You win money","A fixed time limit",5,"female","If I noticed I was getting too many wrong from pressing too quickly on the keys, I would take a quick break and I would take more time between each key press to ensure I focused on which shape was the odd one out","No",3,0,1,0,2,0,1,3,2,1,0,3,2,0,0,0,0,0,2,3,0,0,3,2,0,1,0,0,0,2,1,0,2,0,0,2,0,0,1,0,1,2,3,0,0,1,1,1,3,3,1,1,4,4,3,0,3,0,4,3,3,1,4,"485.09999990463257","<br><br><br><br><table><tr><td><img src=static/images/oddball_up.png></td><td><img src=static/images/oddball_down.png></td><td><img src=static/images/oddball_down.png></td></tr></table>","81","1","","","","","","","","","","","","","","","","","",""
"","html-keyboard-response",42,538793,"0.0-2.11-1.11",89,20,"f",1666817763214,750,"q","q","Only if I get the answer right","You win money","A fixed time limit",5,"female","If I noticed I was getting too many wrong from pressing too quickly on the keys, I would take a quick break and I would take more time between each key press to ensure I focused on which shape was the odd one out","No",3,0,1,0,2,0,1,3,2,1,0,3,2,0,0,0,0,0,2,3,0,0,3,2,0,1,0,0,0,2,1,0,2,0,0,2,0,0,1,0,1,2,3,0,0,1,1,1,3,3,1,1,4,4,3,0,3,0,4,3,3,1,4,"null","<div style=""font-size:75px;""><b>Correct</b></div>","null","","","","","","","","","","","","","","","","","","",""
"","html-keyboard-response",43,539803,"0.0-2.11-2.11",89,20,"f",1666817763214,750,"q","q","Only if I get the answer right","You win money","A fixed time limit",5,"female","If I noticed I was getting too many wrong from pressing too quickly on the keys, I would take a quick break and I would take more time between each key press to ensure I focused on which shape was the odd one out","No",3,0,1,0,2,0,1,3,2,1,0,3,2,0,0,0,0,0,2,3,0,0,3,2,0,1,0,0,0,2,1,0,2,0,0,2,0,0,1,0,1,2,3,0,0,1,1,1,3,3,1,1,4,4,3,0,3,0,4,3,3,1,4,"485.09999990463257","","q","","true","practice","11","down","up","0","q","1","0","1666818304223","","","","","","","",""
"","html-keyboard-response",44,540311,"0.0-2.12-0.12",89,20,"f",1666817763214,750,"q","q","Only if I get the answer right","You win money","A fixed time limit",5,"female","If I noticed I was getting too many wrong from pressing too quickly on the keys, I would take a quick break and I would take more time between each key press to ensure I focused on which shape was the odd one out","No",3,0,1,0,2,0,1,3,2,1,0,3,2,0,0,0,0,0,2,3,0,0,3,2,0,1,0,0,0,2,1,0,2,0,0,2,0,0,1,0,1,2,3,0,0,1,1,1,3,3,1,1,4,4,3,0,3,0,4,3,3,1,4,"507.2999999523163","<br><br><br><br><table><tr><td><img src=static/images/oddball_down.png></td><td><img src=static/images/oddball_up.png></td><td><img src=static/images/oddball_up.png></td></tr></table>","81","1","","","","","","","","","","","","","","","","","",""
"","html-keyboard-response",45,542822,"0.0-2.12-1.12",89,20,"f",1666817763214,750,"q","q","Only if I get the answer right","You win money","A fixed time limit",5,"female","If I noticed I was getting too many wrong from pressing too quickly on the keys, I would take a quick break and I would take more time between each key press to ensure I focused on which shape was the odd one out","No",3,0,1,0,2,0,1,3,2,1,0,3,2,0,0,0,0,0,2,3,0,0,3,2,0,1,0,0,0,2,1,0,2,0,0,2,0,0,1,0,1,2,3,0,0,1,1,1,3,3,1,1,4,4,3,0,3,0,4,3,3,1,4,"null","<div style=""font-size:75px;""><b>Correct</b></div>","null","","","","","","","","","","","","","","","","","","",""
"","html-keyboard-response",46,543827,"0.0-2.12-2.12",89,20,"f",1666817763214,750,"q","q","Only if I get the answer right","You win money","A fixed time limit",5,"female","If I noticed I was getting too many wrong from pressing too quickly on the keys, I would take a quick break and I would take more time between each key press to ensure I focused on which shape was the odd one out","No",3,0,1,0,2,0,1,3,2,1,0,3,2,0,0,0,0,0,2,3,0,0,3,2,0,1,0,0,0,2,1,0,2,0,0,2,0,0,1,0,1,2,3,0,0,1,1,1,3,3,1,1,4,4,3,0,3,0,4,3,3,1,4,"507.2999999523163","","q","","true","practice","12","up","down","0","q","1","0","1666818308247","","","","","","","",""
"","html-keyboard-response",47,544583,"0.0-2.13-0.13",89,20,"f",1666817763214,750,"q","q","Only if I get the answer right","You win money","A fixed time limit",5,"female","If I noticed I was getting too many wrong from pressing too quickly on the keys, I would take a quick break and I would take more time between each key press to ensure I focused on which shape was the odd one out","No",3,0,1,0,2,0,1,3,2,1,0,3,2,0,0,0,0,0,2,3,0,0,3,2,0,1,0,0,0,2,1,0,2,0,0,2,0,0,1,0,1,2,3,0,0,1,1,1,3,3,1,1,4,4,3,0,3,0,4,3,3,1,4,"755.5999999046326","<br><br><br><br><table><tr><td><img src=static/images/oddball_up.png></td><td><img src=static/images/oddball_up.png></td><td><img src=static/images/oddball_down.png></td></tr></table>","69","1","","","","","","","","","","","","","","","","","",""
"","html-keyboard-response",48,547094,"0.0-2.13-1.13",89,20,"f",1666817763214,750,"q","q","Only if I get the answer right","You win money","A fixed time limit",5,"female","If I noticed I was getting too many wrong from pressing too quickly on the keys, I would take a quick break and I would take more time between each key press to ensure I focused on which shape was the odd one out","No",3,0,1,0,2,0,1,3,2,1,0,3,2,0,0,0,0,0,2,3,0,0,3,2,0,1,0,0,0,2,1,0,2,0,0,2,0,0,1,0,1,2,3,0,0,1,1,1,3,3,1,1,4,4,3,0,3,0,4,3,3,1,4,"null","<div style=""font-size:75px;""><b>Correct</b></div>","null","","","","","","","","","","","","","","","","","","",""
"","html-keyboard-response",49,548099,"0.0-2.13-2.13",89,20,"f",1666817763214,750,"q","q","Only if I get the answer right","You win money","A fixed time limit",5,"female","If I noticed I was getting too many wrong from pressing too quickly on the keys, I would take a quick break and I would take more time between each key press to ensure I focused on which shape was the odd one out","No",3,0,1,0,2,0,1,3,2,1,0,3,2,0,0,0,0,0,2,3,0,0,3,2,0,1,0,0,0,2,1,0,2,0,0,2,0,0,1,0,1,2,3,0,0,1,1,1,3,3,1,1,4,4,3,0,3,0,4,3,3,1,4,"755.5999999046326","","e","","true","practice","13","up","down","2","e","1","0","1666818312519","","","","","","","",""
"","html-keyboard-response",50,548695,"0.0-2.14-0.14",89,20,"f",1666817763214,750,"q","q","Only if I get the answer right","You win money","A fixed time limit",5,"female","If I noticed I was getting too many wrong from pressing too quickly on the keys, I would take a quick break and I would take more time between each key press to ensure I focused on which shape was the odd one out","No",3,0,1,0,2,0,1,3,2,1,0,3,2,0,0,0,0,0,2,3,0,0,3,2,0,1,0,0,0,2,1,0,2,0,0,2,0,0,1,0,1,2,3,0,0,1,1,1,3,3,1,1,4,4,3,0,3,0,4,3,3,1,4,"595.5999999046326","<br><br><br><br><table><tr><td><img src=static/images/oddball_down.png></td><td><img src=static/images/oddball_down.png></td><td><img src=static/images/oddball_up.png></td></tr></table>","69","1","","","","","","","","","","","","","","","","","",""
"","html-keyboard-response",51,551212,"0.0-2.14-1.14",89,20,"f",1666817763214,750,"q","q","Only if I get the answer right","You win money","A fixed time limit",5,"female","If I noticed I was getting too many wrong from pressing too quickly on the keys, I would take a quick break and I would take more time between each key press to ensure I focused on which shape was the odd one out","No",3,0,1,0,2,0,1,3,2,1,0,3,2,0,0,0,0,0,2,3,0,0,3,2,0,1,0,0,0,2,1,0,2,0,0,2,0,0,1,0,1,2,3,0,0,1,1,1,3,3,1,1,4,4,3,0,3,0,4,3,3,1,4,"null","<div style=""font-size:75px;""><b>Correct</b></div>","null","","","","","","","","","","","","","","","","","","",""
"","html-keyboard-response",52,552220,"0.0-2.14-2.14",89,20,"f",1666817763214,750,"q","q","Only if I get the answer right","You win money","A fixed time limit",5,"female","If I noticed I was getting too many wrong from pressing too quickly on the keys, I would take a quick break and I would take more time between each key press to ensure I focused on which shape was the odd one out","No",3,0,1,0,2,0,1,3,2,1,0,3,2,0,0,0,0,0,2,3,0,0,3,2,0,1,0,0,0,2,1,0,2,0,0,2,0,0,1,0,1,2,3,0,0,1,1,1,3,3,1,1,4,4,3,0,3,0,4,3,3,1,4,"595.5999999046326","","e","","true","practice","14","down","up","2","e","1","0","1666818316640","","","","","","","",""
"","html-keyboard-response",53,553348,"0.0-2.15-0.15",89,20,"f",1666817763214,750,"q","q","Only if I get the answer right","You win money","A fixed time limit",5,"female","If I noticed I was getting too many wrong from pressing too quickly on the keys, I would take a quick break and I would take more time between each key press to ensure I focused on which shape was the odd one out","No",3,0,1,0,2,0,1,3,2,1,0,3,2,0,0,0,0,0,2,3,0,0,3,2,0,1,0,0,0,2,1,0,2,0,0,2,0,0,1,0,1,2,3,0,0,1,1,1,3,3,1,1,4,4,3,0,3,0,4,3,3,1,4,"1126.7999999523163","<br><br><br><br><table><tr><td><img src=static/images/oddball_up.png></td><td><img src=static/images/oddball_down.png></td><td><img src=static/images/oddball_up.png></td></tr></table>","87","1","","","","","","","","","","","","","","","","","",""
"","html-keyboard-response",54,555859,"0.0-2.15-1.15",89,20,"f",1666817763214,750,"q","q","Only if I get the answer right","You win money","A fixed time limit",5,"female","If I noticed I was getting too many wrong from pressing too quickly on the keys, I would take a quick break and I would take more time between each key press to ensure I focused on which shape was the odd one out","No",3,0,1,0,2,0,1,3,2,1,0,3,2,0,0,0,0,0,2,3,0,0,3,2,0,1,0,0,0,2,1,0,2,0,0,2,0,0,1,0,1,2,3,0,0,1,1,1,3,3,1,1,4,4,3,0,3,0,4,3,3,1,4,"null","<div style=""font-size:75px;""><b>Correct</b></div>","null","","","","","","","","","","","","","","","","","","",""
"","html-keyboard-response",55,556864,"0.0-2.15-2.15",89,20,"f",1666817763214,750,"q","q","Only if I get the answer right","You win money","A fixed time limit",5,"female","If I noticed I was getting too many wrong from pressing too quickly on the keys, I would take a quick break and I would take more time between each key press to ensure I focused on which shape was the odd one out","No",3,0,1,0,2,0,1,3,2,1,0,3,2,0,0,0,0,0,2,3,0,0,3,2,0,1,0,0,0,2,1,0,2,0,0,2,0,0,1,0,1,2,3,0,0,1,1,1,3,3,1,1,4,4,3,0,3,0,4,3,3,1,4,"1126.7999999523163","","w","","true","practice","15","up","down","1","w","1","0","1666818321284","","","","","","","",""
"","html-keyboard-response",56,557484,"0.0-2.16-0.16",89,20,"f",1666817763214,750,"q","q","Only if I get the answer right","You win money","A fixed time limit",5,"female","If I noticed I was getting too many wrong from pressing too quickly on the keys, I would take a quick break and I would take more time between each key press to ensure I focused on which shape was the odd one out","No",3,0,1,0,2,0,1,3,2,1,0,3,2,0,0,0,0,0,2,3,0,0,3,2,0,1,0,0,0,2,1,0,2,0,0,2,0,0,1,0,1,2,3,0,0,1,1,1,3,3,1,1,4,4,3,0,3,0,4,3,3,1,4,"619.5999999046326","<br><br><br><br><table><tr><td><img src=static/images/oddball_up.png></td><td><img src=static/images/oddball_up.png></td><td><img src=static/images/oddball_down.png></td></tr></table>","69","1","","","","","","","","","","","","","","","","","",""
"","html-keyboard-response",57,559996,"0.0-2.16-1.16",89,20,"f",1666817763214,750,"q","q","Only if I get the answer right","You win money","A fixed time limit",5,"female","If I noticed I was getting too many wrong from pressing too quickly on the keys, I would take a quick break and I would take more time between each key press to ensure I focused on which shape was the odd one out","No",3,0,1,0,2,0,1,3,2,1,0,3,2,0,0,0,0,0,2,3,0,0,3,2,0,1,0,0,0,2,1,0,2,0,0,2,0,0,1,0,1,2,3,0,0,1,1,1,3,3,1,1,4,4,3,0,3,0,4,3,3,1,4,"null","<div style=""font-size:75px;""><b>Correct</b></div>","null","","","","","","","","","","","","","","","","","","",""
"","html-keyboard-response",58,561005,"0.0-2.16-2.16",89,20,"f",1666817763214,750,"q","q","Only if I get the answer right","You win money","A fixed time limit",5,"female","If I noticed I was getting too many wrong from pressing too quickly on the keys, I would take a quick break and I would take more time between each key press to ensure I focused on which shape was the odd one out","No",3,0,1,0,2,0,1,3,2,1,0,3,2,0,0,0,0,0,2,3,0,0,3,2,0,1,0,0,0,2,1,0,2,0,0,2,0,0,1,0,1,2,3,0,0,1,1,1,3,3,1,1,4,4,3,0,3,0,4,3,3,1,4,"619.5999999046326","","e","","true","practice","16","up","down","2","e","1","0","1666818325425","","","","","","","",""
"","html-keyboard-response",59,561716,"0.0-2.17-0.17",89,20,"f",1666817763214,750,"q","q","Only if I get the answer right","You win money","A fixed time limit",5,"female","If I noticed I was getting too many wrong from pressing too quickly on the keys, I would take a quick break and I would take more time between each key press to ensure I focused on which shape was the odd one out","No",3,0,1,0,2,0,1,3,2,1,0,3,2,0,0,0,0,0,2,3,0,0,3,2,0,1,0,0,0,2,1,0,2,0,0,2,0,0,1,0,1,2,3,0,0,1,1,1,3,3,1,1,4,4,3,0,3,0,4,3,3,1,4,"710.5999999046326","<br><br><br><br><table><tr><td><img src=static/images/oddball_up.png></td><td><img src=static/images/oddball_down.png></td><td><img src=static/images/oddball_down.png></td></tr></table>","81","1","","","","","","","","","","","","","","","","","",""
"","html-keyboard-response",60,564222,"0.0-2.17-1.17",89,20,"f",1666817763214,750,"q","q","Only if I get the answer right","You win money","A fixed time limit",5,"female","If I noticed I was getting too many wrong from pressing too quickly on the keys, I would take a quick break and I would take more time between each key press to ensure I focused on which shape was the odd one out","No",3,0,1,0,2,0,1,3,2,1,0,3,2,0,0,0,0,0,2,3,0,0,3,2,0,1,0,0,0,2,1,0,2,0,0,2,0,0,1,0,1,2,3,0,0,1,1,1,3,3,1,1,4,4,3,0,3,0,4,3,3,1,4,"null","<div style=""font-size:75px;""><b>Correct</b></div>","null","","","","","","","","","","","","","","","","","","",""
"","html-keyboard-response",61,565229,"0.0-2.17-2.17",89,20,"f",1666817763214,750,"q","q","Only if I get the answer right","You win money","A fixed time limit",5,"female","If I noticed I was getting too many wrong from pressing too quickly on the keys, I would take a quick break and I would take more time between each key press to ensure I focused on which shape was the odd one out","No",3,0,1,0,2,0,1,3,2,1,0,3,2,0,0,0,0,0,2,3,0,0,3,2,0,1,0,0,0,2,1,0,2,0,0,2,0,0,1,0,1,2,3,0,0,1,1,1,3,3,1,1,4,4,3,0,3,0,4,3,3,1,4,"710.5999999046326","","q","","true","practice","17","down","up","0","q","1","0","1666818329649","","","","","","","",""
"","html-keyboard-response",62,566396,"0.0-2.18-0.18",89,20,"f",1666817763214,750,"q","q","Only if I get the answer right","You win money","A fixed time limit",5,"female","If I noticed I was getting too many wrong from pressing too quickly on the keys, I would take a quick break and I would take more time between each key press to ensure I focused on which shape was the odd one out","No",3,0,1,0,2,0,1,3,2,1,0,3,2,0,0,0,0,0,2,3,0,0,3,2,0,1,0,0,0,2,1,0,2,0,0,2,0,0,1,0,1,2,3,0,0,1,1,1,3,3,1,1,4,4,3,0,3,0,4,3,3,1,4,"1166.1999998092651","<br><br><br><br><table><tr><td><img src=static/images/oddball_down.png></td><td><img src=static/images/oddball_up.png></td><td><img src=static/images/oddball_down.png></td></tr></table>","87","1","","","","","","","","","","","","","","","","","",""
"","html-keyboard-response",63,568899,"0.0-2.18-1.18",89,20,"f",1666817763214,750,"q","q","Only if I get the answer right","You win money","A fixed time limit",5,"female","If I noticed I was getting too many wrong from pressing too quickly on the keys, I would take a quick break and I would take more time between each key press to ensure I focused on which shape was the odd one out","No",3,0,1,0,2,0,1,3,2,1,0,3,2,0,0,0,0,0,2,3,0,0,3,2,0,1,0,0,0,2,1,0,2,0,0,2,0,0,1,0,1,2,3,0,0,1,1,1,3,3,1,1,4,4,3,0,3,0,4,3,3,1,4,"null","<div style=""font-size:75px;""><b>Correct</b></div>","null","","","","","","","","","","","","","","","","","","",""
"","html-keyboard-response",64,569905,"0.0-2.18-2.18",89,20,"f",1666817763214,750,"q","q","Only if I get the answer right","You win money","A fixed time limit",5,"female","If I noticed I was getting too many wrong from pressing too quickly on the keys, I would take a quick break and I would take more time between each key press to ensure I focused on which shape was the odd one out","No",3,0,1,0,2,0,1,3,2,1,0,3,2,0,0,0,0,0,2,3,0,0,3,2,0,1,0,0,0,2,1,0,2,0,0,2,0,0,1,0,1,2,3,0,0,1,1,1,3,3,1,1,4,4,3,0,3,0,4,3,3,1,4,"1166.1999998092651","","w","","true","practice","18","down","up","1","w","1","0","1666818334325","","","","","","","",""
"","html-keyboard-response",65,570820,"0.0-2.19-0.19",89,20,"f",1666817763214,750,"q","q","Only if I get the answer right","You win money","A fixed time limit",5,"female","If I noticed I was getting too many wrong from pressing too quickly on the keys, I would take a quick break and I would take more time between each key press to ensure I focused on which shape was the odd one out","No",3,0,1,0,2,0,1,3,2,1,0,3,2,0,0,0,0,0,2,3,0,0,3,2,0,1,0,0,0,2,1,0,2,0,0,2,0,0,1,0,1,2,3,0,0,1,1,1,3,3,1,1,4,4,3,0,3,0,4,3,3,1,4,"914.0999999046326","<br><br><br><br><table><tr><td><img src=static/images/oddball_down.png></td><td><img src=static/images/oddball_up.png></td><td><img src=static/images/oddball_down.png></td></tr></table>","87","1","","","","","","","","","","","","","","","","","",""
"","html-keyboard-response",66,573324,"0.0-2.19-1.19",89,20,"f",1666817763214,750,"q","q","Only if I get the answer right","You win money","A fixed time limit",5,"female","If I noticed I was getting too many wrong from pressing too quickly on the keys, I would take a quick break and I would take more time between each key press to ensure I focused on which shape was the odd one out","No",3,0,1,0,2,0,1,3,2,1,0,3,2,0,0,0,0,0,2,3,0,0,3,2,0,1,0,0,0,2,1,0,2,0,0,2,0,0,1,0,1,2,3,0,0,1,1,1,3,3,1,1,4,4,3,0,3,0,4,3,3,1,4,"null","<div style=""font-size:75px;""><b>Correct</b></div>","null","","","","","","","","","","","","","","","","","","",""
"","html-keyboard-response",67,574331,"0.0-2.19-2.19",89,20,"f",1666817763214,750,"q","q","Only if I get the answer right","You win money","A fixed time limit",5,"female","If I noticed I was getting too many wrong from pressing too quickly on the keys, I would take a quick break and I would take more time between each key press to ensure I focused on which shape was the odd one out","No",3,0,1,0,2,0,1,3,2,1,0,3,2,0,0,0,0,0,2,3,0,0,3,2,0,1,0,0,0,2,1,0,2,0,0,2,0,0,1,0,1,2,3,0,0,1,1,1,3,3,1,1,4,4,3,0,3,0,4,3,3,1,4,"914.0999999046326","","w","","true","practice","19","down","up","1","w","1","0","1666818338751","","","","","","","",""
"","image-keyboard-response",68,584052,"0.0-3.0-0.0",89,20,"f",1666817763214,750,"q","q","Only if I get the answer right","You win money","A fixed time limit",5,"female","If I noticed I was getting too many wrong from pressing too quickly on the keys, I would take a quick break and I would take more time between each key press to ensure I focused on which shape was the odd one out","No",3,0,1,0,2,0,1,3,2,1,0,3,2,0,0,0,0,0,2,3,0,0,3,2,0,1,0,0,0,2,1,0,2,0,0,2,0,0,1,0,1,2,3,0,0,1,1,1,3,3,1,1,4,4,3,0,3,0,4,3,3,1,4,"9720.299999952316","static/images/instructions/Slide8.png","39","","","","","","","","","","","","","","","","","","",""
"","image-keyboard-response",69,604188,"0.0-3.1-0.1",89,20,"f",1666817763214,750,"q","q","Only if I get the answer right","You win money","A fixed time limit",5,"female","If I noticed I was getting too many wrong from pressing too quickly on the keys, I would take a quick break and I would take more time between each key press to ensure I focused on which shape was the odd one out","No",3,0,1,0,2,0,1,3,2,1,0,3,2,0,0,0,0,0,2,3,0,0,3,2,0,1,0,0,0,2,1,0,2,0,0,2,0,0,1,0,1,2,3,0,0,1,1,1,3,3,1,1,4,4,3,0,3,0,4,3,3,1,4,"20135.199999809265","static/images/instructions/Slide9.png","39","","","","","","","","","","","","","","","","","","",""
"","image-keyboard-response",70,623226,"0.0-3.2-0.2",89,20,"f",1666817763214,750,"q","q","Only if I get the answer right","You win money","A fixed time limit",5,"female","If I noticed I was getting too many wrong from pressing too quickly on the keys, I would take a quick break and I would take more time between each key press to ensure I focused on which shape was the odd one out","No",3,0,1,0,2,0,1,3,2,1,0,3,2,0,0,0,0,0,2,3,0,0,3,2,0,1,0,0,0,2,1,0,2,0,0,2,0,0,1,0,1,2,3,0,0,1,1,1,3,3,1,1,4,4,3,0,3,0,4,3,3,1,4,"19047.39999985695","static/images/instructions/Slide10.png","39","","","","","","","","","","","","","","","","","","",""
"","image-keyboard-response",71,648010,"0.0-3.3-0.3",89,20,"f",1666817763214,750,"q","q","Only if I get the answer right","You win money","A fixed time limit",5,"female","If I noticed I was getting too many wrong from pressing too quickly on the keys, I would take a quick break and I would take more time between each key press to ensure I focused on which shape was the odd one out","No",3,0,1,0,2,0,1,3,2,1,0,3,2,0,0,0,0,0,2,3,0,0,3,2,0,1,0,0,0,2,1,0,2,0,0,2,0,0,1,0,1,2,3,0,0,1,1,1,3,3,1,1,4,4,3,0,3,0,4,3,3,1,4,"24783.299999952316","static/images/instructions/Slide11.png","39","","","","","","","","","","","","","","","","","","",""
"","image-keyboard-response",72,651666,"0.0-3.4-0.4",89,20,"f",1666817763214,750,"q","q","Only if I get the answer right","You win money","A fixed time limit",5,"female","If I noticed I was getting too many wrong from pressing too quickly on the keys, I would take a quick break and I would take more time between each key press to ensure I focused on which shape was the odd one out","No",3,0,1,0,2,0,1,3,2,1,0,3,2,0,0,0,0,0,2,3,0,0,3,2,0,1,0,0,0,2,1,0,2,0,0,2,0,0,1,0,1,2,3,0,0,1,1,1,3,3,1,1,4,4,3,0,3,0,4,3,3,1,4,"3655.2000000476837","static/images/instructions/Slide12.png","39","","","","","","","","","","","","","","","","","","",""
"","image-keyboard-response",73,658474,"0.0-3.5-0.5",89,20,"f",1666817763214,750,"q","q","Only if I get the answer right","You win money","A fixed time limit",5,"female","If I noticed I was getting too many wrong from pressing too quickly on the keys, I would take a quick break and I would take more time between each key press to ensure I focused on which shape was the odd one out","No",3,0,1,0,2,0,1,3,2,1,0,3,2,0,0,0,0,0,2,3,0,0,3,2,0,1,0,0,0,2,1,0,2,0,0,2,0,0,1,0,1,2,3,0,0,1,1,1,3,3,1,1,4,4,3,0,3,0,4,3,3,1,4,"6807.5","static/images/instructions/Slide13.png","39","","","","","","","","","","","","","","","","","","",""
"","image-keyboard-response",74,661242,"0.0-3.6-0.6",89,20,"f",1666817763214,750,"q","q","Only if I get the answer right","You win money","A fixed time limit",5,"female","If I noticed I was getting too many wrong from pressing too quickly on the keys, I would take a quick break and I would take more time between each key press to ensure I focused on which shape was the odd one out","No",3,0,1,0,2,0,1,3,2,1,0,3,2,0,0,0,0,0,2,3,0,0,3,2,0,1,0,0,0,2,1,0,2,0,0,2,0,0,1,0,1,2,3,0,0,1,1,1,3,3,1,1,4,4,3,0,3,0,4,3,3,1,4,"2767.0999999046326","static/images/instructions/Slide14.png","37","","","","","","","","","","","","","","","","","","",""
"","image-keyboard-response",75,665570,"0.0-3.7-0.7",89,20,"f",1666817763214,750,"q","q","Only if I get the answer right","You win money","A fixed time limit",5,"female","If I noticed I was getting too many wrong from pressing too quickly on the keys, I would take a quick break and I would take more time between each key press to ensure I focused on which shape was the odd one out","No",3,0,1,0,2,0,1,3,2,1,0,3,2,0,0,0,0,0,2,3,0,0,3,2,0,1,0,0,0,2,1,0,2,0,0,2,0,0,1,0,1,2,3,0,0,1,1,1,3,3,1,1,4,4,3,0,3,0,4,3,3,1,4,"4327.399999856949","static/images/instructions/Slide13.png","39","","","","","","","","","","","","","","","","","","",""
"","image-keyboard-response",76,675914,"0.0-3.8-0.8",89,20,"f",1666817763214,750,"q","q","Only if I get the answer right","You win money","A fixed time limit",5,"female","If I noticed I was getting too many wrong from pressing too quickly on the keys, I would take a quick break and I would take more time between each key press to ensure I focused on which shape was the odd one out","No",3,0,1,0,2,0,1,3,2,1,0,3,2,0,0,0,0,0,2,3,0,0,3,2,0,1,0,0,0,2,1,0,2,0,0,2,0,0,1,0,1,2,3,0,0,1,1,1,3,3,1,1,4,4,3,0,3,0,4,3,3,1,4,"10343.299999952316","static/images/instructions/Slide14.png","39","","","","","","","","","","","","","","","","","","",""
"","image-keyboard-response",77,684217,"0.0-3.9-0.9",89,20,"f",1666817763214,750,"q","q","Only if I get the answer right","You win money","A fixed time limit",5,"female","If I noticed I was getting too many wrong from pressing too quickly on the keys, I would take a quick break and I would take more time between each key press to ensure I focused on which shape was the odd one out","No",3,0,1,0,2,0,1,3,2,1,0,3,2,0,0,0,0,0,2,3,0,0,3,2,0,1,0,0,0,2,1,0,2,0,0,2,0,0,1,0,1,2,3,0,0,1,1,1,3,3,1,1,4,4,3,0,3,0,4,3,3,1,4,"8295.400000095367","static/images/instructions/Slide15.png","39","","","","","","","","","","","","","","","","","","",""
"","image-keyboard-response",78,700786,"0.0-3.10-0.10",89,20,"f",1666817763214,750,"q","q","Only if I get the answer right","You win money","A fixed time limit",5,"female","If I noticed I was getting too many wrong from pressing too quickly on the keys, I would take a quick break and I would take more time between each key press to ensure I focused on which shape was the odd one out","No",3,0,1,0,2,0,1,3,2,1,0,3,2,0,0,0,0,0,2,3,0,0,3,2,0,1,0,0,0,2,1,0,2,0,0,2,0,0,1,0,1,2,3,0,0,1,1,1,3,3,1,1,4,4,3,0,3,0,4,3,3,1,4,"16567.700000047684","static/images/instructions/Slide16.png","39","","","","","","","","","","","","","","","","","","",""
"","image-keyboard-response",79,706161,"0.0-3.11-0.11",89,20,"f",1666817763214,750,"q","q","Only if I get the answer right","You win money","A fixed time limit",5,"female","If I noticed I was getting too many wrong from pressing too quickly on the keys, I would take a quick break and I would take more time between each key press to ensure I focused on which shape was the odd one out","No",3,0,1,0,2,0,1,3,2,1,0,3,2,0,0,0,0,0,2,3,0,0,3,2,0,1,0,0,0,2,1,0,2,0,0,2,0,0,1,0,1,2,3,0,0,1,1,1,3,3,1,1,4,4,3,0,3,0,4,3,3,1,4,"5375.200000047684","static/images/instructions/Slide17.png","39","","","","","","","","","","","","","","","","","","",""
"","survey-multi-choice",80,770772,"0.0-4.0",89,20,"f",1666817763214,750,"q","q","Only if I get the answer right","You win money","A fixed time limit",5,"female","If I noticed I was getting too many wrong from pressing too quickly on the keys, I would take a quick break and I would take more time between each key press to ensure I focused on which shape was the odd one out","No",3,0,1,0,2,0,1,3,2,1,0,3,2,0,0,0,0,0,2,3,0,0,3,2,0,1,0,0,0,2,1,0,2,0,0,2,0,0,1,0,1,2,3,0,0,1,1,1,3,3,1,1,4,4,3,0,3,0,4,3,3,1,4,"64606.39999985695","","","","","","","","","","","","","","{""q1"":""q"",""q2"":""q"",""q3"":""Only if I get the answer right"",""q4"":""You win money"",""q5"":""A fixed time limit""}","[4,3,0,1,2]","","","","","",""
"","image-keyboard-response",81,779867,"0.0-5.0-0.0",89,20,"f",1666817763214,750,"q","q","Only if I get the answer right","You win money","A fixed time limit",5,"female","If I noticed I was getting too many wrong from pressing too quickly on the keys, I would take a quick break and I would take more time between each key press to ensure I focused on which shape was the odd one out","No",3,0,1,0,2,0,1,3,2,1,0,3,2,0,0,0,0,0,2,3,0,0,3,2,0,1,0,0,0,2,1,0,2,0,0,2,0,0,1,0,1,2,3,0,0,1,1,1,3,3,1,1,4,4,3,0,3,0,4,3,3,1,4,"9094.199999809265","static/images/instructions/Slide18.png","39","","","","","","","","","","","","","","","","","","",""
"","html-keyboard-response",82,780882,"0.0-6.0-0.0-0.0",89,20,"f",1666817763214,750,"q","q","Only if I get the answer right","You win money","A fixed time limit",5,"female","If I noticed I was getting too many wrong from pressing too quickly on the keys, I would take a quick break and I would take more time between each key press to ensure I focused on which shape was the odd one out","No",3,0,1,0,2,0,1,3,2,1,0,3,2,0,0,0,0,0,2,3,0,0,3,2,0,1,0,0,0,2,1,0,2,0,0,2,0,0,1,0,1,2,3,0,0,1,1,1,3,3,1,1,4,4,3,0,3,0,4,3,3,1,4,"null","<div style=""font-size:75px;"">3</div>","null","","","","","","","","","","","","","","","","","","",""
"","html-keyboard-response",83,781884,"0.0-6.0-0.1-0.1",89,20,"f",1666817763214,750,"q","q","Only if I get the answer right","You win money","A fixed time limit",5,"female","If I noticed I was getting too many wrong from pressing too quickly on the keys, I would take a quick break and I would take more time between each key press to ensure I focused on which shape was the odd one out","No",3,0,1,0,2,0,1,3,2,1,0,3,2,0,0,0,0,0,2,3,0,0,3,2,0,1,0,0,0,2,1,0,2,0,0,2,0,0,1,0,1,2,3,0,0,1,1,1,3,3,1,1,4,4,3,0,3,0,4,3,3,1,4,"null","<div style=""font-size:75px;"">2</div>","null","","","","","","","","","","","","","","","","","","",""
"","html-keyboard-response",84,782887,"0.0-6.0-0.2-0.2",89,20,"f",1666817763214,750,"q","q","Only if I get the answer right","You win money","A fixed time limit",5,"female","If I noticed I was getting too many wrong from pressing too quickly on the keys, I would take a quick break and I would take more time between each key press to ensure I focused on which shape was the odd one out","No",3,0,1,0,2,0,1,3,2,1,0,3,2,0,0,0,0,0,2,3,0,0,3,2,0,1,0,0,0,2,1,0,2,0,0,2,0,0,1,0,1,2,3,0,0,1,1,1,3,3,1,1,4,4,3,0,3,0,4,3,3,1,4,"null","<div style=""font-size:75px;"">1</div>","null","","","","","","","","","","","","","","","","","","",""
"","html-keyboard-response",85,783379,"0.0-6.0-1.0-0.0",89,20,"f",1666817763214,750,"q","q","Only if I get the answer right","You win money","A fixed time limit",5,"female","If I noticed I was getting too many wrong from pressing too quickly on the keys, I would take a quick break and I would take more time between each key press to ensure I focused on which shape was the odd one out","No",3,0,1,0,2,0,1,3,2,1,0,3,2,0,0,0,0,0,2,3,0,0,3,2,0,1,0,0,0,2,1,0,2,0,0,2,0,0,1,0,1,2,3,0,0,1,1,1,3,3,1,1,4,4,3,0,3,0,4,3,3,1,4,"491.89999985694885","<div style=""color:green; font-size:75px;""><b>$0.02</b></div><br><br><br><br><table><tr><td><img src=static/images/oddball_up.png></td><td><img src=static/images/oddball_down.png></td><td><img src=static/images/oddball_down.png></td></tr></table>","81","1","","","","","","","","","","","","","","","","","",""
"","html-keyboard-response",86,783423.994945491,"0.0-6.0-1.0-1.0",89,20,"f",1666817763214,750,"q","q","Only if I get the answer right","You win money","A fixed time limit",5,"female","If I noticed I was getting too many wrong from pressing too quickly on the keys, I would take a quick break and I would take more time between each key press to ensure I focused on which shape was the odd one out","No",3,0,1,0,2,0,1,3,2,1,0,3,2,0,0,0,0,0,2,3,0,0,3,2,0,1,0,0,0,2,1,0,2,0,0,2,0,0,1,0,1,2,3,0,0,1,1,1,3,3,1,1,4,4,3,0,3,0,4,3,3,1,4,"424.894945348003","","q","","true","0","0","down","up","0","q","1","0","1666818547843.99","","","false","60","0","0","0.02","null"
"","html-keyboard-response",87,784203,"0.0-6.0-1.1-0.1",89,20,"f",1666817763214,750,"q","q","Only if I get the answer right","You win money","A fixed time limit",5,"female","If I noticed I was getting too many wrong from pressing too quickly on the keys, I would take a quick break and I would take more time between each key press to ensure I focused on which shape was the odd one out","No",3,0,1,0,2,0,1,3,2,1,0,3,2,0,0,0,0,0,2,3,0,0,3,2,0,1,0,0,0,2,1,0,2,0,0,2,0,0,1,0,1,2,3,0,0,1,1,1,3,3,1,1,4,4,3,0,3,0,4,3,3,1,4,"711.7000000476837","<div style=""color:green; font-size:75px;""><b>$0.02</b></div><br><br><br><br><table><tr><td><img src=static/images/oddball_down.png></td><td><img src=static/images/oddball_up.png></td><td><img src=static/images/oddball_down.png></td></tr></table>","87","1","","","","","","","","","","","","","","","","","",""
"","html-keyboard-response",88,784343.929299776,"0.0-6.0-1.1-1.1",89,20,"f",1666817763214,750,"q","q","Only if I get the answer right","You win money","A fixed time limit",5,"female","If I noticed I was getting too many wrong from pressing too quickly on the keys, I would take a quick break and I would take more time between each key press to ensure I focused on which shape was the odd one out","No",3,0,1,0,2,0,1,3,2,1,0,3,2,0,0,0,0,0,2,3,0,0,3,2,0,1,0,0,0,2,1,0,2,0,0,2,0,0,1,0,1,2,3,0,0,1,1,1,3,3,1,1,4,4,3,0,3,0,4,3,3,1,4,"746.629299823453","","w","","true","0","1","down","up","1","w","1","0","1666818548763.93","","","false","60","1","0.0166666666666667","0.02","false"
"","html-keyboard-response",89,785043,"0.0-6.0-1.2-0.2",89,20,"f",1666817763214,750,"q","q","Only if I get the answer right","You win money","A fixed time limit",5,"female","If I noticed I was getting too many wrong from pressing too quickly on the keys, I would take a quick break and I would take more time between each key press to ensure I focused on which shape was the odd one out","No",3,0,1,0,2,0,1,3,2,1,0,3,2,0,0,0,0,0,2,3,0,0,3,2,0,1,0,0,0,2,1,0,2,0,0,2,0,0,1,0,1,2,3,0,0,1,1,1,3,3,1,1,4,4,3,0,3,0,4,3,3,1,4,"733.7999999523163","<div style=""color:green; font-size:75px;""><b>$0.02</b></div><br><br><br><br><table><tr><td><img src=static/images/oddball_up.png></td><td><img src=static/images/oddball_down.png></td><td><img src=static/images/oddball_up.png></td></tr></table>","87","1","","","","","","","","","","","","","","","","","",""
"","html-keyboard-response",90,785086.476204121,"0.0-6.0-1.2-1.2",89,20,"f",1666817763214,750,"q","q","Only if I get the answer right","You win money","A fixed time limit",5,"female","If I noticed I was getting too many wrong from pressing too quickly on the keys, I would take a quick break and I would take more time between each key press to ensure I focused on which shape was the odd one out","No",3,0,1,0,2,0,1,3,2,1,0,3,2,0,0,0,0,0,2,3,0,0,3,2,0,1,0,0,0,2,1,0,2,0,0,2,0,0,1,0,1,2,3,0,0,1,1,1,3,3,1,1,4,4,3,0,3,0,4,3,3,1,4,"661.276204073271","","w","","true","0","2","up","down","1","w","1","0","1666818549506.48","","","false","60","2","0.0333333333333333","0.02","false"
"","html-keyboard-response",91,785851,"0.0-6.0-1.3-0.3",89,20,"f",1666817763214,750,"q","q","Only if I get the answer right","You win money","A fixed time limit",5,"female","If I noticed I was getting too many wrong from pressing too quickly on the keys, I would take a quick break and I would take more time between each key press to ensure I focused on which shape was the odd one out","No",3,0,1,0,2,0,1,3,2,1,0,3,2,0,0,0,0,0,2,3,0,0,3,2,0,1,0,0,0,2,1,0,2,0,0,2,0,0,1,0,1,2,3,0,0,1,1,1,3,3,1,1,4,4,3,0,3,0,4,3,3,1,4,"691.5","<div style=""color:green; font-size:75px;""><b>$0.02</b></div><br><br><br><br><table><tr><td><img src=static/images/oddball_down.png></td><td><img src=static/images/oddball_down.png></td><td><img src=static/images/oddball_up.png></td></tr></table>","69","1","","","","","","","","","","","","","","","","","",""
"","html-keyboard-response",92,785961.799567685,"0.0-6.0-1.3-1.3",89,20,"f",1666817763214,750,"q","q","Only if I get the answer right","You win money","A fixed time limit",5,"female","If I noticed I was getting too many wrong from pressing too quickly on the keys, I would take a quick break and I would take more time between each key press to ensure I focused on which shape was the odd one out","No",3,0,1,0,2,0,1,3,2,1,0,3,2,0,0,0,0,0,2,3,0,0,3,2,0,1,0,0,0,2,1,0,2,0,0,2,0,0,1,0,1,2,3,0,0,1,1,1,3,3,1,1,4,4,3,0,3,0,4,3,3,1,4,"691.29957","","e","","true","0","3","down","up","2","e","1","0","1666818550381.8","","","false","60","3","0.05","0.02","false"
"","html-keyboard-response",93,786516,"0.0-6.0-1.4-0.4",89,20,"f",1666817763214,750,"q","q","Only if I get the answer right","You win money","A fixed time limit",5,"female","If I noticed I was getting too many wrong from pressing too quickly on the keys, I would take a quick break and I would take more time between each key press to ensure I focused on which shape was the odd one out","No",3,0,1,0,2,0,1,3,2,1,0,3,2,0,0,0,0,0,2,3,0,0,3,2,0,1,0,0,0,2,1,0,2,0,0,2,0,0,1,0,1,2,3,0,0,1,1,1,3,3,1,1,4,4,3,0,3,0,4,3,3,1,4,"552.7999999523163","<div style=""color:green; font-size:75px;""><b>$0.02</b></div><br><br><br><br><table><tr><td><img src=static/images/oddball_up.png></td><td><img src=static/images/oddball_down.png></td><td><img src=static/images/oddball_down.png></td></tr></table>","81","1","","","","","","","","","","","","","","","","","",""
"","html-keyboard-response",94,786702.134359663,"0.0-6.0-1.4-1.4",89,20,"f",1666817763214,750,"q","q","Only if I get the answer right","You win money","A fixed time limit",5,"female","If I noticed I was getting too many wrong from pressing too quickly on the keys, I would take a quick break and I would take more time between each key press to ensure I focused on which shape was the odd one out","No",3,0,1,0,2,0,1,3,2,1,0,3,2,0,0,0,0,0,2,3,0,0,3,2,0,1,0,0,0,2,1,0,2,0,0,2,0,0,1,0,1,2,3,0,0,1,1,1,3,3,1,1,4,4,3,0,3,0,4,3,3,1,4,"624.934359615567","","q","","true","0","4","down","up","0","q","1","0","1666818551123.13","","","false","60","4","0.0666666666666667","0.02","false"
"","html-keyboard-response",95,787275,"0.0-6.0-1.5-0.5",89,20,"f",1666817763214,750,"q","q","Only if I get the answer right","You win money","A fixed time limit",5,"female","If I noticed I was getting too many wrong from pressing too quickly on the keys, I would take a quick break and I would take more time between each key press to ensure I focused on which shape was the odd one out","No",3,0,1,0,2,0,1,3,2,1,0,3,2,0,0,0,0,0,2,3,0,0,3,2,0,1,0,0,0,2,1,0,2,0,0,2,0,0,1,0,1,2,3,0,0,1,1,1,3,3,1,1,4,4,3,0,3,0,4,3,3,1,4,"644.1999998092651","<div style=""color:green; font-size:75px;""><b>$0.02</b></div><br><br><br><br><table><tr><td><img src=static/images/oddball_up.png></td><td><img src=static/images/oddball_up.png></td><td><img src=static/images/oddball_down.png></td></tr></table>","69","1","","","","","","","","","","","","","","","","","",""
"","html-keyboard-response",96,787373.390945011,"0.0-6.0-1.5-1.5",89,20,"f",1666817763214,750,"q","q","Only if I get the answer right","You win money","A fixed time limit",5,"female","If I noticed I was getting too many wrong from pressing too quickly on the keys, I would take a quick break and I would take more time between each key press to ensure I focused on which shape was the odd one out","No",3,0,1,0,2,0,1,3,2,1,0,3,2,0,0,0,0,0,2,3,0,0,3,2,0,1,0,0,0,2,1,0,2,0,0,2,0,0,1,0,1,2,3,0,0,1,1,1,3,3,1,1,4,4,3,0,3,0,4,3,3,1,4,"636.590944820297","","e","","true","0","5","up","down","2","e","1","0","1666818551793.39","","","false","60","5","0.0833333333333333","0.02","false"
"","html-keyboard-response",97,788035,"0.0-6.0-1.6-0.6",89,20,"f",1666817763214,750,"q","q","Only if I get the answer right","You win money","A fixed time limit",5,"female","If I noticed I was getting too many wrong from pressing too quickly on the keys, I would take a quick break and I would take more time between each key press to ensure I focused on which shape was the odd one out","No",3,0,1,0,2,0,1,3,2,1,0,3,2,0,0,0,0,0,2,3,0,0,3,2,0,1,0,0,0,2,1,0,2,0,0,2,0,0,1,0,1,2,3,0,0,1,1,1,3,3,1,1,4,4,3,0,3,0,4,3,3,1,4,"654","<div style=""color:green; font-size:75px;""><b>$0.02</b></div><br><br><br><br><table><tr><td><img src=static/images/oddball_down.png></td><td><img src=static/images/oddball_up.png></td><td><img src=static/images/oddball_up.png></td></tr></table>","81","1","","","","","","","","","","","","","","","","","",""
"","html-keyboard-response",98,788194.24450212,"0.0-6.0-1.6-1.6",89,20,"f",1666817763214,750,"q","q","Only if I get the answer right","You win money","A fixed time limit",5,"female","If I noticed I was getting too many wrong from pressing too quickly on the keys, I would take a quick break and I would take more time between each key press to ensure I focused on which shape was the odd one out","No",3,0,1,0,2,0,1,3,2,1,0,3,2,0,0,0,0,0,2,3,0,0,3,2,0,1,0,0,0,2,1,0,2,0,0,2,0,0,1,0,1,2,3,0,0,1,1,1,3,3,1,1,4,4,3,0,3,0,4,3,3,1,4,"698.245","","q","","true","0","6","up","down","0","q","1","0","1666818552614.24","","","false","60","6","0.1","0.02","false"
"","html-keyboard-response",99,788692,"0.0-6.0-1.7-0.7",89,20,"f",1666817763214,750,"q","q","Only if I get the answer right","You win money","A fixed time limit",5,"female","If I noticed I was getting too many wrong from pressing too quickly on the keys, I would take a quick break and I would take more time between each key press to ensure I focused on which shape was the odd one out","No",3,0,1,0,2,0,1,3,2,1,0,3,2,0,0,0,0,0,2,3,0,0,3,2,0,1,0,0,0,2,1,0,2,0,0,2,0,0,1,0,1,2,3,0,0,1,1,1,3,3,1,1,4,4,3,0,3,0,4,3,3,1,4,"541.0999999046326","<div style=""color:green; font-size:75px;""><b>$0.02</b></div><br><br><br><br><table><tr><td><img src=static/images/oddball_up.png></td><td><img src=static/images/oddball_up.png></td><td><img src=static/images/oddball_down.png></td></tr></table>","69","1","","","","","","","","","","","","","","","","","",""
"","html-keyboard-response",100,788722.527910172,"0.0-6.0-1.7-1.7",89,20,"f",1666817763214,750,"q","q","Only if I get the answer right","You win money","A fixed time limit",5,"female","If I noticed I was getting too many wrong from pressing too quickly on the keys, I would take a quick break and I would take more time between each key press to ensure I focused on which shape was the odd one out","No",3,0,1,0,2,0,1,3,2,1,0,3,2,0,0,0,0,0,2,3,0,0,3,2,0,1,0,0,0,2,1,0,2,0,0,2,0,0,1,0,1,2,3,0,0,1,1,1,3,3,1,1,4,4,3,0,3,0,4,3,3,1,4,"468.627910077153","","e","","true","0","7","up","down","2","e","1","0","1666818553143.53","","","false","60","7","0.116666666666667","0.02","false"
"","html-keyboard-response",101,789499,"0.0-6.0-1.8-0.8",89,20,"f",1666817763214,750,"q","q","Only if I get the answer right","You win money","A fixed time limit",5,"female","If I noticed I was getting too many wrong from pressing too quickly on the keys, I would take a quick break and I would take more time between each key press to ensure I focused on which shape was the odd one out","No",3,0,1,0,2,0,1,3,2,1,0,3,2,0,0,0,0,0,2,3,0,0,3,2,0,1,0,0,0,2,1,0,2,0,0,2,0,0,1,0,1,2,3,0,0,1,1,1,3,3,1,1,4,4,3,0,3,0,4,3,3,1,4,"703.2000000476837","<div style=""color:green; font-size:75px;""><b>$0.02</b></div><br><br><br><br><table><tr><td><img src=static/images/oddball_up.png></td><td><img src=static/images/oddball_down.png></td><td><img src=static/images/oddball_down.png></td></tr></table>","81","1","","","","","","","","","","","","","","","","","",""
"","html-keyboard-response",102,789589.46631643,"0.0-6.0-1.8-1.8",89,20,"f",1666817763214,750,"q","q","Only if I get the answer right","You win money","A fixed time limit",5,"female","If I noticed I was getting too many wrong from pressing too quickly on the keys, I would take a quick break and I would take more time between each key press to ensure I focused on which shape was the odd one out","No",3,0,1,0,2,0,1,3,2,1,0,3,2,0,0,0,0,0,2,3,0,0,3,2,0,1,0,0,0,2,1,0,2,0,0,2,0,0,1,0,1,2,3,0,0,1,1,1,3,3,1,1,4,4,3,0,3,0,4,3,3,1,4,"690.666316477605","","q","","true","0","8","down","up","0","q","1","0","1666818554009.47","","","false","60","8","0.133333333333333","0.02","false"
"","html-keyboard-response",103,790251,"0.0-6.0-1.9-0.9",89,20,"f",1666817763214,750,"q","q","Only if I get the answer right","You win money","A fixed time limit",5,"female","If I noticed I was getting too many wrong from pressing too quickly on the keys, I would take a quick break and I would take more time between each key press to ensure I focused on which shape was the odd one out","No",3,0,1,0,2,0,1,3,2,1,0,3,2,0,0,0,0,0,2,3,0,0,3,2,0,1,0,0,0,2,1,0,2,0,0,2,0,0,1,0,1,2,3,0,0,1,1,1,3,3,1,1,4,4,3,0,3,0,4,3,3,1,4,"649.0999999046326","<div style=""color:green; font-size:75px;""><b>$0.02</b></div><br><br><br><br><table><tr><td><img src=static/images/oddball_up.png></td><td><img src=static/images/oddball_down.png></td><td><img src=static/images/oddball_up.png></td></tr></table>","87","1","","","","","","","","","","","","","","","","","",""
"","html-keyboard-response",104,790378.465699985,"0.0-6.0-1.9-1.9",89,20,"f",1666817763214,750,"q","q","Only if I get the answer right","You win money","A fixed time limit",5,"female","If I noticed I was getting too many wrong from pressing too quickly on the keys, I would take a quick break and I would take more time between each key press to ensure I focused on which shape was the odd one out","No",3,0,1,0,2,0,1,3,2,1,0,3,2,0,0,0,0,0,2,3,0,0,3,2,0,1,0,0,0,2,1,0,2,0,0,2,0,0,1,0,1,2,3,0,0,1,1,1,3,3,1,1,4,4,3,0,3,0,4,3,3,1,4,"674.565699889805","","w","","true","0","9","up","down","1","w","1","0","1666818554798.47","","","false","60","9","0.15","0.02","false"
"","html-keyboard-response",105,791108,"0.0-6.0-1.10-0.10",89,20,"f",1666817763214,750,"q","q","Only if I get the answer right","You win money","A fixed time limit",5,"female","If I noticed I was getting too many wrong from pressing too quickly on the keys, I would take a quick break and I would take more time between each key press to ensure I focused on which shape was the odd one out","No",3,0,1,0,2,0,1,3,2,1,0,3,2,0,0,0,0,0,2,3,0,0,3,2,0,1,0,0,0,2,1,0,2,0,0,2,0,0,1,0,1,2,3,0,0,1,1,1,3,3,1,1,4,4,3,0,3,0,4,3,3,1,4,"753.7999999523163","<div style=""color:green; font-size:75px;""><b>$0.02</b></div><br><br><br><br><table><tr><td><img src=static/images/oddball_down.png></td><td><img src=static/images/oddball_up.png></td><td><img src=static/images/oddball_down.png></td></tr></table>","87","1","","","","","","","","","","","","","","","","","",""
"","html-keyboard-response",106,791188.426136573,"0.0-6.0-1.10-1.10",89,20,"f",1666817763214,750,"q","q","Only if I get the answer right","You win money","A fixed time limit",5,"female","If I noticed I was getting too many wrong from pressing too quickly on the keys, I would take a quick break and I would take more time between each key press to ensure I focused on which shape was the odd one out","No",3,0,1,0,2,0,1,3,2,1,0,3,2,0,0,0,0,0,2,3,0,0,3,2,0,1,0,0,0,2,1,0,2,0,0,2,0,0,1,0,1,2,3,0,0,1,1,1,3,3,1,1,4,4,3,0,3,0,4,3,3,1,4,"720.226136525627","","w","","true","0","10","down","up","1","w","1","0","1666818555608.43","","","false","60","10","0.166666666666667","0.02","false"
"","html-keyboard-response",107,791739,"0.0-6.0-1.11-0.11",89,20,"f",1666817763214,750,"q","q","Only if I get the answer right","You win money","A fixed time limit",5,"female","If I noticed I was getting too many wrong from pressing too quickly on the keys, I would take a quick break and I would take more time between each key press to ensure I focused on which shape was the odd one out","No",3,0,1,0,2,0,1,3,2,1,0,3,2,0,0,0,0,0,2,3,0,0,3,2,0,1,0,0,0,2,1,0,2,0,0,2,0,0,1,0,1,2,3,0,0,1,1,1,3,3,1,1,4,4,3,0,3,0,4,3,3,1,4,"516.3999998569489","<div style=""color:green; font-size:75px;""><b>$0.02</b></div><br><br><br><br><table><tr><td><img src=static/images/oddball_down.png></td><td><img src=static/images/oddball_down.png></td><td><img src=static/images/oddball_up.png></td></tr></table>","69","1","","","","","","","","","","","","","","","","","",""
"","html-keyboard-response",108,791923.122195838,"0.0-6.0-1.11-1.11",89,20,"f",1666817763214,750,"q","q","Only if I get the answer right","You win money","A fixed time limit",5,"female","If I noticed I was getting too many wrong from pressing too quickly on the keys, I would take a quick break and I would take more time between each key press to ensure I focused on which shape was the odd one out","No",3,0,1,0,2,0,1,3,2,1,0,3,2,0,0,0,0,0,2,3,0,0,3,2,0,1,0,0,0,2,1,0,2,0,0,2,0,0,1,0,1,2,3,0,0,1,1,1,3,3,1,1,4,4,3,0,3,0,4,3,3,1,4,"599.522195695069","","e","","true","0","11","down","up","2","e","1","0","1666818556343.12","","","false","60","11","0.183333333333333","0.02","false"
"","html-keyboard-response",109,792459,"0.0-6.0-1.12-0.12",89,20,"f",1666817763214,750,"q","q","Only if I get the answer right","You win money","A fixed time limit",5,"female","If I noticed I was getting too many wrong from pressing too quickly on the keys, I would take a quick break and I would take more time between each key press to ensure I focused on which shape was the odd one out","No",3,0,1,0,2,0,1,3,2,1,0,3,2,0,0,0,0,0,2,3,0,0,3,2,0,1,0,0,0,2,1,0,2,0,0,2,0,0,1,0,1,2,3,0,0,1,1,1,3,3,1,1,4,4,3,0,3,0,4,3,3,1,4,"618.7000000476837","<div style=""color:green; font-size:75px;""><b>$0.02</b></div><br><br><br><br><table><tr><td><img src=static/images/oddball_up.png></td><td><img src=static/images/oddball_up.png></td><td><img src=static/images/oddball_down.png></td></tr></table>","69","1","","","","","","","","","","","","","","","","","",""
"","html-keyboard-response",110,792502.627262206,"0.0-6.0-1.12-1.12",89,20,"f",1666817763214,750,"q","q","Only if I get the answer right","You win money","A fixed time limit",5,"female","If I noticed I was getting too many wrong from pressing too quickly on the keys, I would take a quick break and I would take more time between each key press to ensure I focused on which shape was the odd one out","No",3,0,1,0,2,0,1,3,2,1,0,3,2,0,0,0,0,0,2,3,0,0,3,2,0,1,0,0,0,2,1,0,2,0,0,2,0,0,1,0,1,2,3,0,0,1,1,1,3,3,1,1,4,4,3,0,3,0,4,3,3,1,4,"561.327262253439","","e","","true","0","12","up","down","2","e","1","0","1666818556922.63","","","false","60","12","0.2","0.02","false"
"","html-keyboard-response",111,793075,"0.0-6.0-1.13-0.13",89,20,"f",1666817763214,750,"q","q","Only if I get the answer right","You win money","A fixed time limit",5,"female","If I noticed I was getting too many wrong from pressing too quickly on the keys, I would take a quick break and I would take more time between each key press to ensure I focused on which shape was the odd one out","No",3,0,1,0,2,0,1,3,2,1,0,3,2,0,0,0,0,0,2,3,0,0,3,2,0,1,0,0,0,2,1,0,2,0,0,2,0,0,1,0,1,2,3,0,0,1,1,1,3,3,1,1,4,4,3,0,3,0,4,3,3,1,4,"514.5","<div style=""color:green; font-size:75px;""><b>$0.02</b></div><br><br><br><br><table><tr><td><img src=static/images/oddball_up.png></td><td><img src=static/images/oddball_up.png></td><td><img src=static/images/oddball_down.png></td></tr></table>","69","1","","","","","","","","","","","","","","","","","",""
"","html-keyboard-response",112,793139.373484678,"0.0-6.0-1.13-1.13",89,20,"f",1666817763214,750,"q","q","Only if I get the answer right","You win money","A fixed time limit",5,"female","If I noticed I was getting too many wrong from pressing too quickly on the keys, I would take a quick break and I would take more time between each key press to ensure I focused on which shape was the odd one out","No",3,0,1,0,2,0,1,3,2,1,0,3,2,0,0,0,0,0,2,3,0,0,3,2,0,1,0,0,0,2,1,0,2,0,0,2,0,0,1,0,1,2,3,0,0,1,1,1,3,3,1,1,4,4,3,0,3,0,4,3,3,1,4,"474.87348","","e","","true","0","13","up","down","2","e","1","0","1666818557559.37","","","false","60","13","0.216666666666667","0.02","false"
"","html-keyboard-response",113,793707,"0.0-6.0-1.14-0.14",89,20,"f",1666817763214,750,"q","q","Only if I get the answer right","You win money","A fixed time limit",5,"female","If I noticed I was getting too many wrong from pressing too quickly on the keys, I would take a quick break and I would take more time between each key press to ensure I focused on which shape was the odd one out","No",3,0,1,0,2,0,1,3,2,1,0,3,2,0,0,0,0,0,2,3,0,0,3,2,0,1,0,0,0,2,1,0,2,0,0,2,0,0,1,0,1,2,3,0,0,1,1,1,3,3,1,1,4,4,3,0,3,0,4,3,3,1,4,"527.5999999046326","<div style=""color:green; font-size:75px;""><b>$0.02</b></div><br><br><br><br><table><tr><td><img src=static/images/oddball_down.png></td><td><img src=static/images/oddball_up.png></td><td><img src=static/images/oddball_down.png></td></tr></table>","81","1","","","","","","","","","","","","","","","","","",""
"","html-keyboard-response",114,793739.823818451,"0.0-6.0-1.14-1.14",89,20,"f",1666817763214,750,"q","q","Only if I get the answer right","You win money","A fixed time limit",5,"female","If I noticed I was getting too many wrong from pressing too quickly on the keys, I would take a quick break and I would take more time between each key press to ensure I focused on which shape was the odd one out","No",3,0,1,0,2,0,1,3,2,1,0,3,2,0,0,0,0,0,2,3,0,0,3,2,0,1,0,0,0,2,1,0,2,0,0,2,0,0,1,0,1,2,3,0,0,1,1,1,3,3,1,1,4,4,3,0,3,0,4,3,3,1,4,"457.423818355892","","q","","true","0","14","down","up","1","w","0","0","1666818558159.82","","","false","60","14","0.233333333333333","0.02","false"
"","html-keyboard-response",115,794572,"0.0-6.0-1.15-0.15",89,20,"f",1666817763214,750,"q","q","Only if I get the answer right","You win money","A fixed time limit",5,"female","If I noticed I was getting too many wrong from pressing too quickly on the keys, I would take a quick break and I would take more time between each key press to ensure I focused on which shape was the odd one out","No",3,0,1,0,2,0,1,3,2,1,0,3,2,0,0,0,0,0,2,3,0,0,3,2,0,1,0,0,0,2,1,0,2,0,0,2,0,0,1,0,1,2,3,0,0,1,1,1,3,3,1,1,4,4,3,0,3,0,4,3,3,1,4,"null","<div style=""color:green; font-size:75px;""><b>$0.02</b></div><br><br><br><br><table><tr><td><img src=static/images/oddball_up.png></td><td><img src=static/images/oddball_up.png></td><td><img src=static/images/oddball_down.png></td></tr></table>","null","","","","","","","","","","","","","","","","","","",""
"","html-keyboard-response",116,794683,"0.0-6.0-1.15-1.15",89,20,"f",1666817763214,750,"q","q","Only if I get the answer right","You win money","A fixed time limit",5,"female","If I noticed I was getting too many wrong from pressing too quickly on the keys, I would take a quick break and I would take more time between each key press to ensure I focused on which shape was the odd one out","No",3,0,1,0,2,0,1,3,2,1,0,3,2,0,0,0,0,0,2,3,0,0,3,2,0,1,0,0,0,2,1,0,2,0,0,2,0,0,1,0,1,2,3,0,0,1,1,1,3,3,1,1,4,4,3,0,3,0,4,3,3,1,4,"null","","null","","true","0","15","up","down","2","e","0","0","1666818559103","","","false","60","15","0.233333333333333","0.02","true"
"","html-keyboard-response",117,795442,"0.0-6.0-1.16-0.16",89,20,"f",1666817763214,750,"q","q","Only if I get the answer right","You win money","A fixed time limit",5,"female","If I noticed I was getting too many wrong from pressing too quickly on the keys, I would take a quick break and I would take more time between each key press to ensure I focused on which shape was the odd one out","No",3,0,1,0,2,0,1,3,2,1,0,3,2,0,0,0,0,0,2,3,0,0,3,2,0,1,0,0,0,2,1,0,2,0,0,2,0,0,1,0,1,2,3,0,0,1,1,1,3,3,1,1,4,4,3,0,3,0,4,3,3,1,4,"null","<div style=""color:green; font-size:75px;""><b>$0.02</b></div><br><br><br><br><table><tr><td><img src=static/images/oddball_down.png></td><td><img src=static/images/oddball_down.png></td><td><img src=static/images/oddball_up.png></td></tr></table>","null","","","","","","","","","","","","","","","","","","",""
"","html-keyboard-response",118,795552,"0.0-6.0-1.16-1.16",89,20,"f",1666817763214,750,"q","q","Only if I get the answer right","You win money","A fixed time limit",5,"female","If I noticed I was getting too many wrong from pressing too quickly on the keys, I would take a quick break and I would take more time between each key press to ensure I focused on which shape was the odd one out","No",3,0,1,0,2,0,1,3,2,1,0,3,2,0,0,0,0,0,2,3,0,0,3,2,0,1,0,0,0,2,1,0,2,0,0,2,0,0,1,0,1,2,3,0,0,1,1,1,3,3,1,1,4,4,3,0,3,0,4,3,3,1,4,"null","","null","","true","0","16","down","up","2","e","0","0","1666818559972","","","false","60","16","0.233333333333333","0.02","true"
"","html-keyboard-response",119,796099,"0.0-6.0-1.17-0.17",89,20,"f",1666817763214,750,"q","q","Only if I get the answer right","You win money","A fixed time limit",5,"female","If I noticed I was getting too many wrong from pressing too quickly on the keys, I would take a quick break and I would take more time between each key press to ensure I focused on which shape was the odd one out","No",3,0,1,0,2,0,1,3,2,1,0,3,2,0,0,0,0,0,2,3,0,0,3,2,0,1,0,0,0,2,1,0,2,0,0,2,0,0,1,0,1,2,3,0,0,1,1,1,3,3,1,1,4,4,3,0,3,0,4,3,3,1,4,"546.7999999523163","<div style=""color:green; font-size:75px;""><b>$0.02</b></div><br><br><br><br><table><tr><td><img src=static/images/oddball_up.png></td><td><img src=static/images/oddball_up.png></td><td><img src=static/images/oddball_down.png></td></tr></table>","69","1","","","","","","","","","","","","","","","","","",""
"","html-keyboard-response",120,796208.413545367,"0.0-6.0-1.17-1.17",89,20,"f",1666817763214,750,"q","q","Only if I get the answer right","You win money","A fixed time limit",5,"female","If I noticed I was getting too many wrong from pressing too quickly on the keys, I would take a quick break and I would take more time between each key press to ensure I focused on which shape was the odd one out","No",3,0,1,0,2,0,1,3,2,1,0,3,2,0,0,0,0,0,2,3,0,0,3,2,0,1,0,0,0,2,1,0,2,0,0,2,0,0,1,0,1,2,3,0,0,1,1,1,3,3,1,1,4,4,3,0,3,0,4,3,3,1,4,"552.213545319031","","e","","true","0","17","up","down","2","e","1","0","1666818560629.41","","","false","60","17","0.233333333333333","0.02","false"
"","html-keyboard-response",121,796748,"0.0-6.0-1.18-0.18",89,20,"f",1666817763214,750,"q","q","Only if I get the answer right","You win money","A fixed time limit",5,"female","If I noticed I was getting too many wrong from pressing too quickly on the keys, I would take a quick break and I would take more time between each key press to ensure I focused on which shape was the odd one out","No",3,0,1,0,2,0,1,3,2,1,0,3,2,0,0,0,0,0,2,3,0,0,3,2,0,1,0,0,0,2,1,0,2,0,0,2,0,0,1,0,1,2,3,0,0,1,1,1,3,3,1,1,4,4,3,0,3,0,4,3,3,1,4,"543.2000000476837","<div style=""color:green; font-size:75px;""><b>$0.02</b></div><br><br><br><br><table><tr><td><img src=static/images/oddball_up.png></td><td><img src=static/images/oddball_down.png></td><td><img src=static/images/oddball_up.png></td></tr></table>","87","1","","","","","","","","","","","","","","","","","",""
"","html-keyboard-response",122,796739.083331439,"0.0-6.0-1.18-1.18",89,20,"f",1666817763214,750,"q","q","Only if I get the answer right","You win money","A fixed time limit",5,"female","If I noticed I was getting too many wrong from pressing too quickly on the keys, I would take a quick break and I would take more time between each key press to ensure I focused on which shape was the odd one out","No",3,0,1,0,2,0,1,3,2,1,0,3,2,0,0,0,0,0,2,3,0,0,3,2,0,1,0,0,0,2,1,0,2,0,0,2,0,0,1,0,1,2,3,0,0,1,1,1,3,3,1,1,4,4,3,0,3,0,4,3,3,1,4,"432.283331486704","","w","","true","0","18","up","down","1","w","1","0","1666818561159.08","","","false","60","18","0.25","0.02","false"
"","html-keyboard-response",123,797404,"0.0-6.0-1.19-0.19",89,20,"f",1666817763214,750,"q","q","Only if I get the answer right","You win money","A fixed time limit",5,"female","If I noticed I was getting too many wrong from pressing too quickly on the keys, I would take a quick break and I would take more time between each key press to ensure I focused on which shape was the odd one out","No",3,0,1,0,2,0,1,3,2,1,0,3,2,0,0,0,0,0,2,3,0,0,3,2,0,1,0,0,0,2,1,0,2,0,0,2,0,0,1,0,1,2,3,0,0,1,1,1,3,3,1,1,4,4,3,0,3,0,4,3,3,1,4,"552.7999999523163","<div style=""color:green; font-size:75px;""><b>$0.02</b></div><br><br><br><br><table><tr><td><img src=static/images/oddball_up.png></td><td><img src=static/images/oddball_up.png></td><td><img src=static/images/oddball_down.png></td></tr></table>","69","1","","","","","","","","","","","","","","","","","",""
"","html-keyboard-response",124,797419.899707142,"0.0-6.0-1.19-1.19",89,20,"f",1666817763214,750,"q","q","Only if I get the answer right","You win money","A fixed time limit",5,"female","If I noticed I was getting too many wrong from pressing too quickly on the keys, I would take a quick break and I would take more time between each key press to ensure I focused on which shape was the odd one out","No",3,0,1,0,2,0,1,3,2,1,0,3,2,0,0,0,0,0,2,3,0,0,3,2,0,1,0,0,0,2,1,0,2,0,0,2,0,0,1,0,1,2,3,0,0,1,1,1,3,3,1,1,4,4,3,0,3,0,4,3,3,1,4,"455.69970709456","","e","","true","0","19","up","down","2","e","1","0","1666818561839.9","","","false","60","19","0.266666666666667","0.02","false"
"","html-keyboard-response",125,797947,"0.0-6.0-1.20-0.20",89,20,"f",1666817763214,750,"q","q","Only if I get the answer right","You win money","A fixed time limit",5,"female","If I noticed I was getting too many wrong from pressing too quickly on the keys, I would take a quick break and I would take more time between each key press to ensure I focused on which shape was the odd one out","No",3,0,1,0,2,0,1,3,2,1,0,3,2,0,0,0,0,0,2,3,0,0,3,2,0,1,0,0,0,2,1,0,2,0,0,2,0,0,1,0,1,2,3,0,0,1,1,1,3,3,1,1,4,4,3,0,3,0,4,3,3,1,4,"430.10000014305115","<div style=""color:green; font-size:75px;""><b>$0.02</b></div><br><br><br><br><table><tr><td><img src=static/images/oddball_up.png></td><td><img src=static/images/oddball_down.png></td><td><img src=static/images/oddball_up.png></td></tr></table>","87","1","","","","","","","","","","","","","","","","","",""
"","html-keyboard-response",126,798009.809369577,"0.0-6.0-1.20-1.20",89,20,"f",1666817763214,750,"q","q","Only if I get the answer right","You win money","A fixed time limit",5,"female","If I noticed I was getting too many wrong from pressing too quickly on the keys, I would take a quick break and I would take more time between each key press to ensure I focused on which shape was the odd one out","No",3,0,1,0,2,0,1,3,2,1,0,3,2,0,0,0,0,0,2,3,0,0,3,2,0,1,0,0,0,2,1,0,2,0,0,2,0,0,1,0,1,2,3,0,0,1,1,1,3,3,1,1,4,4,3,0,3,0,4,3,3,1,4,"387.909369720457","","w","","true","0","20","up","down","1","w","1","0","1666818562429.81","","","false","60","20","0.283333333333333","0.02","false"
"","html-keyboard-response",127,798659,"0.0-6.0-1.21-0.21",89,20,"f",1666817763214,750,"q","q","Only if I get the answer right","You win money","A fixed time limit",5,"female","If I noticed I was getting too many wrong from pressing too quickly on the keys, I would take a quick break and I would take more time between each key press to ensure I focused on which shape was the odd one out","No",3,0,1,0,2,0,1,3,2,1,0,3,2,0,0,0,0,0,2,3,0,0,3,2,0,1,0,0,0,2,1,0,2,0,0,2,0,0,1,0,1,2,3,0,0,1,1,1,3,3,1,1,4,4,3,0,3,0,4,3,3,1,4,"606.9000000953674","<div style=""color:green; font-size:75px;""><b>$0.02</b></div><br><br><br><br><table><tr><td><img src=static/images/oddball_down.png></td><td><img src=static/images/oddball_down.png></td><td><img src=static/images/oddball_up.png></td></tr></table>","69","1","","","","","","","","","","","","","","","","","",""
"","html-keyboard-response",128,798867.679352558,"0.0-6.0-1.21-1.21",89,20,"f",1666817763214,750,"q","q","Only if I get the answer right","You win money","A fixed time limit",5,"female","If I noticed I was getting too many wrong from pressing too quickly on the keys, I would take a quick break and I would take more time between each key press to ensure I focused on which shape was the odd one out","No",3,0,1,0,2,0,1,3,2,1,0,3,2,0,0,0,0,0,2,3,0,0,3,2,0,1,0,0,0,2,1,0,2,0,0,2,0,0,1,0,1,2,3,0,0,1,1,1,3,3,1,1,4,4,3,0,3,0,4,3,3,1,4,"705.579352653791","","e","","true","0","21","down","up","2","e","1","0","1666818563287.68","","","false","60","21","0.3","0.02","false"
"","html-keyboard-response",129,799459,"0.0-6.0-1.22-0.22",89,20,"f",1666817763214,750,"q","q","Only if I get the answer right","You win money","A fixed time limit",5,"female","If I noticed I was getting too many wrong from pressing too quickly on the keys, I would take a quick break and I would take more time between each key press to ensure I focused on which shape was the odd one out","No",3,0,1,0,2,0,1,3,2,1,0,3,2,0,0,0,0,0,2,3,0,0,3,2,0,1,0,0,0,2,1,0,2,0,0,2,0,0,1,0,1,2,3,0,0,1,1,1,3,3,1,1,4,4,3,0,3,0,4,3,3,1,4,"689.5","<div style=""color:green; font-size:75px;""><b>$0.02</b></div><br><br><br><br><table><tr><td><img src=static/images/oddball_up.png></td><td><img src=static/images/oddball_down.png></td><td><img src=static/images/oddball_up.png></td></tr></table>","87","1","","","","","","","","","","","","","","","","","",""
"","html-keyboard-response",130,799610.59515761,"0.0-6.0-1.22-1.22",89,20,"f",1666817763214,750,"q","q","Only if I get the answer right","You win money","A fixed time limit",5,"female","If I noticed I was getting too many wrong from pressing too quickly on the keys, I would take a quick break and I would take more time between each key press to ensure I focused on which shape was the odd one out","No",3,0,1,0,2,0,1,3,2,1,0,3,2,0,0,0,0,0,2,3,0,0,3,2,0,1,0,0,0,2,1,0,2,0,0,2,0,0,1,0,1,2,3,0,0,1,1,1,3,3,1,1,4,4,3,0,3,0,4,3,3,1,4,"728.09516","","w","","true","0","22","up","down","1","w","1","0","1666818564030.6","","","false","60","22","0.316666666666667","0.02","false"
"","html-keyboard-response",131,800333,"0.0-6.0-1.23-0.23",89,20,"f",1666817763214,750,"q","q","Only if I get the answer right","You win money","A fixed time limit",5,"female","If I noticed I was getting too many wrong from pressing too quickly on the keys, I would take a quick break and I would take more time between each key press to ensure I focused on which shape was the odd one out","No",3,0,1,0,2,0,1,3,2,1,0,3,2,0,0,0,0,0,2,3,0,0,3,2,0,1,0,0,0,2,1,0,2,0,0,2,0,0,1,0,1,2,3,0,0,1,1,1,3,3,1,1,4,4,3,0,3,0,4,3,3,1,4,"null","<div style=""color:green; font-size:75px;""><b>$0.02</b></div><br><br><br><br><table><tr><td><img src=static/images/oddball_down.png></td><td><img src=static/images/oddball_up.png></td><td><img src=static/images/oddball_down.png></td></tr></table>","null","","","","","","","","","","","","","","","","","","",""
"","html-keyboard-response",132,800444,"0.0-6.0-1.23-1.23",89,20,"f",1666817763214,750,"q","q","Only if I get the answer right","You win money","A fixed time limit",5,"female","If I noticed I was getting too many wrong from pressing too quickly on the keys, I would take a quick break and I would take more time between each key press to ensure I focused on which shape was the odd one out","No",3,0,1,0,2,0,1,3,2,1,0,3,2,0,0,0,0,0,2,3,0,0,3,2,0,1,0,0,0,2,1,0,2,0,0,2,0,0,1,0,1,2,3,0,0,1,1,1,3,3,1,1,4,4,3,0,3,0,4,3,3,1,4,"null","","null","","true","0","23","down","up","1","w","0","0","1666818564864","","","false","60","23","0.333333333333333","0.02","true"
"","html-keyboard-response",133,800476,"0.0-6.0-1.24-0.24",89,20,"f",1666817763214,750,"q","q","Only if I get the answer right","You win money","A fixed time limit",5,"female","If I noticed I was getting too many wrong from pressing too quickly on the keys, I would take a quick break and I would take more time between each key press to ensure I focused on which shape was the odd one out","No",3,0,1,0,2,0,1,3,2,1,0,3,2,0,0,0,0,0,2,3,0,0,3,2,0,1,0,0,0,2,1,0,2,0,0,2,0,0,1,0,1,2,3,0,0,1,1,1,3,3,1,1,4,4,3,0,3,0,4,3,3,1,4,"31.09999990463257","<div style=""color:green; font-size:75px;""><b>$0.02</b></div><br><br><br><br><table><tr><td><img src=static/images/oddball_down.png></td><td><img src=static/images/oddball_down.png></td><td><img src=static/images/oddball_up.png></td></tr></table>","87","1","","","","","","","","","","","","","","","","","",""
"","html-keyboard-response",134,800590,"0.0-6.0-1.24-1.24",89,20,"f",1666817763214,750,"q","q","Only if I get the answer right","You win money","A fixed time limit",5,"female","If I noticed I was getting too many wrong from pressing too quickly on the keys, I would take a quick break and I would take more time between each key press to ensure I focused on which shape was the odd one out","No",3,0,1,0,2,0,1,3,2,1,0,3,2,0,0,0,0,0,2,3,0,0,3,2,0,1,0,0,0,2,1,0,2,0,0,2,0,0,1,0,1,2,3,0,0,1,1,1,3,3,1,1,4,4,3,0,3,0,4,3,3,1,4,"31.09999990463257","","w","","true","0","24","down","up","2","e","0","0","1666818565010","","","false","60","24","0.333333333333333","0.02","false"
"","html-keyboard-response",135,801251,"0.0-6.0-1.25-0.25",89,20,"f",1666817763214,750,"q","q","Only if I get the answer right","You win money","A fixed time limit",5,"female","If I noticed I was getting too many wrong from pressing too quickly on the keys, I would take a quick break and I would take more time between each key press to ensure I focused on which shape was the odd one out","No",3,0,1,0,2,0,1,3,2,1,0,3,2,0,0,0,0,0,2,3,0,0,3,2,0,1,0,0,0,2,1,0,2,0,0,2,0,0,1,0,1,2,3,0,0,1,1,1,3,3,1,1,4,4,3,0,3,0,4,3,3,1,4,"660.9000000953674","<div style=""color:green; font-size:75px;""><b>$0.02</b></div><br><br><br><br><table><tr><td><img src=static/images/oddball_up.png></td><td><img src=static/images/oddball_down.png></td><td><img src=static/images/oddball_down.png></td></tr></table>","81","1","","","","","","","","","","","","","","","","","",""
"","html-keyboard-response",136,801377.858373686,"0.0-6.0-1.25-1.25",89,20,"f",1666817763214,750,"q","q","Only if I get the answer right","You win money","A fixed time limit",5,"female","If I noticed I was getting too many wrong from pressing too quickly on the keys, I would take a quick break and I would take more time between each key press to ensure I focused on which shape was the odd one out","No",3,0,1,0,2,0,1,3,2,1,0,3,2,0,0,0,0,0,2,3,0,0,3,2,0,1,0,0,0,2,1,0,2,0,0,2,0,0,1,0,1,2,3,0,0,1,1,1,3,3,1,1,4,4,3,0,3,0,4,3,3,1,4,"680.758373781107","","q","","true","0","25","down","up","0","q","1","0","1666818565797.86","","","false","60","25","0.333333333333333","0.02","false"
"","html-keyboard-response",137,801955,"0.0-6.0-1.26-0.26",89,20,"f",1666817763214,750,"q","q","Only if I get the answer right","You win money","A fixed time limit",5,"female","If I noticed I was getting too many wrong from pressing too quickly on the keys, I would take a quick break and I would take more time between each key press to ensure I focused on which shape was the odd one out","No",3,0,1,0,2,0,1,3,2,1,0,3,2,0,0,0,0,0,2,3,0,0,3,2,0,1,0,0,0,2,1,0,2,0,0,2,0,0,1,0,1,2,3,0,0,1,1,1,3,3,1,1,4,4,3,0,3,0,4,3,3,1,4,"596.6999998092651","<div style=""color:green; font-size:75px;""><b>$0.02</b></div><br><br><br><br><table><tr><td><img src=static/images/oddball_down.png></td><td><img src=static/images/oddball_down.png></td><td><img src=static/images/oddball_up.png></td></tr></table>","69","1","","","","","","","","","","","","","","","","","",""
"","html-keyboard-response",138,802126.389953856,"0.0-6.0-1.26-1.26",89,20,"f",1666817763214,750,"q","q","Only if I get the answer right","You win money","A fixed time limit",5,"female","If I noticed I was getting too many wrong from pressing too quickly on the keys, I would take a quick break and I would take more time between each key press to ensure I focused on which shape was the odd one out","No",3,0,1,0,2,0,1,3,2,1,0,3,2,0,0,0,0,0,2,3,0,0,3,2,0,1,0,0,0,2,1,0,2,0,0,2,0,0,1,0,1,2,3,0,0,1,1,1,3,3,1,1,4,4,3,0,3,0,4,3,3,1,4,"664.089953665534","","e","","true","0","26","down","up","2","e","1","0","1666818566546.39","","","false","60","26","0.35","0.02","false"
