"success","trial_type","trial_index","time_elapsed","internal_node_id","subject","age","sex","date","deadline","instQ1","instQ2","instQ3","instQ4","instQ5","totalInstQ","gender","strategy","comments","DASS1_s","DASS2_a","DASS3_d","DASS4_a","DASS5_d","DASS6_s","DASS7_a","DASS8_s","DASS9_a","DASS10_d","DASS11_s","DASS12_s","DASS13_d","DASS14_s","DASS15_a","DASS16_d","DASS17_d","DASS18_s","DASS19_a","DASS20_a","DASS21_d","BB1","BB2","BB3","BB4","BB5","BB6","BB7","BB8","BB9","BB10","BB11","BB12","BB13","BB14","BB15","BB16","BB17","BB18","BB19","BB20","BB21","BB22","BB23","BB24","NFC1","NFC2","NFC3","NFC4","NFC5","NFC6","NFC7","NFC8","NFC9","NFC10","NFC11","NFC12","NFC13","NFC14","NFC15","NFC16","NFC17","NFC18","rt","stimulus","key_press","npress","isDataTrial","block","trialinblock","common","odd","oddidx","correct_ans","accuracy","totalTokens","timestamp","responses","question_order","showprog","blocklen","trial","progress","reward","timedout"
"true","fullscreen",0,4842,"0.0-0.0",58,19,"f",1665410500128,750,"q","q","Only if I get the answer right","You win money","A fixed time limit",5,"female","not really, but i keep an eye on the ones that changed","no",1,0,0,0,1,2,0,1,0,1,1,1,0,1,0,0,0,0,0,0,0,0,2,2,0,1,0,0,1,1,1,2,1,1,1,2,1,1,1,0,1,2,2,0,0,2,3,1,1,1,3,2,1,2,3,3,2,2,1,2,4,1,3,"","","","","","","","","","","","","","","","","","","","","",""
"","image-keyboard-response",1,120024,"0.0-1.0-0.0",58,19,"f",1665410500128,750,"q","q","Only if I get the answer right","You win money","A fixed time limit",5,"female","not really, but i keep an eye on the ones that changed","no",1,0,0,0,1,2,0,1,0,1,1,1,0,1,0,0,0,0,0,0,0,0,2,2,0,1,0,0,1,1,1,2,1,1,1,2,1,1,1,0,1,2,2,0,0,2,3,1,1,1,3,2,1,2,3,3,2,2,1,2,4,1,3,"114921","static/images/instructions/Slide1.png","39","","","","","","","","","","","","","","","","","","",""
"","image-keyboard-response",2,123740,"0.0-1.1-0.1",58,19,"f",1665410500128,750,"q","q","Only if I get the answer right","You win money","A fixed time limit",5,"female","not really, but i keep an eye on the ones that changed","no",1,0,0,0,1,2,0,1,0,1,1,1,0,1,0,0,0,0,0,0,0,0,2,2,0,1,0,0,1,1,1,2,1,1,1,2,1,1,1,0,1,2,2,0,0,2,3,1,1,1,3,2,1,2,3,3,2,2,1,2,4,1,3,"3715.2000000476837","static/images/instructions/Slide2.png","39","","","","","","","","","","","","","","","","","","",""
"","image-keyboard-response",3,126860,"0.0-1.2-0.2",58,19,"f",1665410500128,750,"q","q","Only if I get the answer right","You win money","A fixed time limit",5,"female","not really, but i keep an eye on the ones that changed","no",1,0,0,0,1,2,0,1,0,1,1,1,0,1,0,0,0,0,0,0,0,0,2,2,0,1,0,0,1,1,1,2,1,1,1,2,1,1,1,0,1,2,2,0,0,2,3,1,1,1,3,2,1,2,3,3,2,2,1,2,4,1,3,"3119.4000000953674","static/images/instructions/Slide3.png","39","","","","","","","","","","","","","","","","","","",""
"","image-keyboard-response",4,129356,"0.0-1.3-0.3",58,19,"f",1665410500128,750,"q","q","Only if I get the answer right","You win money","A fixed time limit",5,"female","not really, but i keep an eye on the ones that changed","no",1,0,0,0,1,2,0,1,0,1,1,1,0,1,0,0,0,0,0,0,0,0,2,2,0,1,0,0,1,1,1,2,1,1,1,2,1,1,1,0,1,2,2,0,0,2,3,1,1,1,3,2,1,2,3,3,2,2,1,2,4,1,3,"2495.399999856949","static/images/instructions/Slide4.png","39","","","","","","","","","","","","","","","","","","",""
"","image-keyboard-response",5,131444,"0.0-1.4-0.4",58,19,"f",1665410500128,750,"q","q","Only if I get the answer right","You win money","A fixed time limit",5,"female","not really, but i keep an eye on the ones that changed","no",1,0,0,0,1,2,0,1,0,1,1,1,0,1,0,0,0,0,0,0,0,0,2,2,0,1,0,0,1,1,1,2,1,1,1,2,1,1,1,0,1,2,2,0,0,2,3,1,1,1,3,2,1,2,3,3,2,2,1,2,4,1,3,"2087.100000143051","static/images/instructions/Slide5.png","39","","","","","","","","","","","","","","","","","","",""
"","image-keyboard-response",6,134196,"0.0-1.5-0.5",58,19,"f",1665410500128,750,"q","q","Only if I get the answer right","You win money","A fixed time limit",5,"female","not really, but i keep an eye on the ones that changed","no",1,0,0,0,1,2,0,1,0,1,1,1,0,1,0,0,0,0,0,0,0,0,2,2,0,1,0,0,1,1,1,2,1,1,1,2,1,1,1,0,1,2,2,0,0,2,3,1,1,1,3,2,1,2,3,3,2,2,1,2,4,1,3,"2751.2999999523163","static/images/instructions/Slide6.png","39","","","","","","","","","","","","","","","","","","",""
"","image-keyboard-response",7,168148,"0.0-1.6-0.6",58,19,"f",1665410500128,750,"q","q","Only if I get the answer right","You win money","A fixed time limit",5,"female","not really, but i keep an eye on the ones that changed","no",1,0,0,0,1,2,0,1,0,1,1,1,0,1,0,0,0,0,0,0,0,0,2,2,0,1,0,0,1,1,1,2,1,1,1,2,1,1,1,0,1,2,2,0,0,2,3,1,1,1,3,2,1,2,3,3,2,2,1,2,4,1,3,"33951.200000047684","static/images/instructions/Slide7.png","39","","","","","","","","","","","","","","","","","","",""
"","html-keyboard-response",8,170708,"0.0-2.0-0.0",58,19,"f",1665410500128,750,"q","q","Only if I get the answer right","You win money","A fixed time limit",5,"female","not really, but i keep an eye on the ones that changed","no",1,0,0,0,1,2,0,1,0,1,1,1,0,1,0,0,0,0,0,0,0,0,2,2,0,1,0,0,1,1,1,2,1,1,1,2,1,1,1,0,1,2,2,0,0,2,3,1,1,1,3,2,1,2,3,3,2,2,1,2,4,1,3,"2517.9000000953674","<br><br><br><br><table><tr><td><img src=static/images/oddball_down.png></td><td><img src=static/images/oddball_up.png></td><td><img src=static/images/oddball_up.png></td></tr></table>","81","1","","","","","","","","","","","","","","","","","",""
"","html-keyboard-response",9,173279,"0.0-2.0-1.0",58,19,"f",1665410500128,750,"q","q","Only if I get the answer right","You win money","A fixed time limit",5,"female","not really, but i keep an eye on the ones that changed","no",1,0,0,0,1,2,0,1,0,1,1,1,0,1,0,0,0,0,0,0,0,0,2,2,0,1,0,0,1,1,1,2,1,1,1,2,1,1,1,0,1,2,2,0,0,2,3,1,1,1,3,2,1,2,3,3,2,2,1,2,4,1,3,"null","<div style=""font-size:75px;""><b>Correct</b></div>","null","","","","","","","","","","","","","","","","","","",""
"","html-keyboard-response",10,174322,"0.0-2.0-2.0",58,19,"f",1665410500128,750,"q","q","Only if I get the answer right","You win money","A fixed time limit",5,"female","not really, but i keep an eye on the ones that changed","no",1,0,0,0,1,2,0,1,0,1,1,1,0,1,0,0,0,0,0,0,0,0,2,2,0,1,0,0,1,1,1,2,1,1,1,2,1,1,1,0,1,2,2,0,0,2,3,1,1,1,3,2,1,2,3,3,2,2,1,2,4,1,3,"2517.9000000953674","","q","","true","practice","0","up","down","0","q","1","0","1665410675413","","","","","","","",""
"","html-keyboard-response",11,174988,"0.0-2.1-0.1",58,19,"f",1665410500128,750,"q","q","Only if I get the answer right","You win money","A fixed time limit",5,"female","not really, but i keep an eye on the ones that changed","no",1,0,0,0,1,2,0,1,0,1,1,1,0,1,0,0,0,0,0,0,0,0,2,2,0,1,0,0,1,1,1,2,1,1,1,2,1,1,1,0,1,2,2,0,0,2,3,1,1,1,3,2,1,2,3,3,2,2,1,2,4,1,3,"665.5","<br><br><br><br><table><tr><td><img src=static/images/oddball_down.png></td><td><img src=static/images/oddball_up.png></td><td><img src=static/images/oddball_up.png></td></tr></table>","81","1","","","","","","","","","","","","","","","","","",""
"","html-keyboard-response",12,177500,"0.0-2.1-1.1",58,19,"f",1665410500128,750,"q","q","Only if I get the answer right","You win money","A fixed time limit",5,"female","not really, but i keep an eye on the ones that changed","no",1,0,0,0,1,2,0,1,0,1,1,1,0,1,0,0,0,0,0,0,0,0,2,2,0,1,0,0,1,1,1,2,1,1,1,2,1,1,1,0,1,2,2,0,0,2,3,1,1,1,3,2,1,2,3,3,2,2,1,2,4,1,3,"null","<div style=""font-size:75px;""><b>Correct</b></div>","null","","","","","","","","","","","","","","","","","","",""
"","html-keyboard-response",13,178505,"0.0-2.1-2.1",58,19,"f",1665410500128,750,"q","q","Only if I get the answer right","You win money","A fixed time limit",5,"female","not really, but i keep an eye on the ones that changed","no",1,0,0,0,1,2,0,1,0,1,1,1,0,1,0,0,0,0,0,0,0,0,2,2,0,1,0,0,1,1,1,2,1,1,1,2,1,1,1,0,1,2,2,0,0,2,3,1,1,1,3,2,1,2,3,3,2,2,1,2,4,1,3,"665.5","","q","","true","practice","1","up","down","0","q","1","0","1665410679596","","","","","","","",""
"","html-keyboard-response",14,179204,"0.0-2.2-0.2",58,19,"f",1665410500128,750,"q","q","Only if I get the answer right","You win money","A fixed time limit",5,"female","not really, but i keep an eye on the ones that changed","no",1,0,0,0,1,2,0,1,0,1,1,1,0,1,0,0,0,0,0,0,0,0,2,2,0,1,0,0,1,1,1,2,1,1,1,2,1,1,1,0,1,2,2,0,0,2,3,1,1,1,3,2,1,2,3,3,2,2,1,2,4,1,3,"698.7000000476837","<br><br><br><br><table><tr><td><img src=static/images/oddball_down.png></td><td><img src=static/images/oddball_up.png></td><td><img src=static/images/oddball_up.png></td></tr></table>","81","1","","","","","","","","","","","","","","","","","",""
"","html-keyboard-response",15,181710,"0.0-2.2-1.2",58,19,"f",1665410500128,750,"q","q","Only if I get the answer right","You win money","A fixed time limit",5,"female","not really, but i keep an eye on the ones that changed","no",1,0,0,0,1,2,0,1,0,1,1,1,0,1,0,0,0,0,0,0,0,0,2,2,0,1,0,0,1,1,1,2,1,1,1,2,1,1,1,0,1,2,2,0,0,2,3,1,1,1,3,2,1,2,3,3,2,2,1,2,4,1,3,"null","<div style=""font-size:75px;""><b>Correct</b></div>","null","","","","","","","","","","","","","","","","","","",""
"","html-keyboard-response",16,182713,"0.0-2.2-2.2",58,19,"f",1665410500128,750,"q","q","Only if I get the answer right","You win money","A fixed time limit",5,"female","not really, but i keep an eye on the ones that changed","no",1,0,0,0,1,2,0,1,0,1,1,1,0,1,0,0,0,0,0,0,0,0,2,2,0,1,0,0,1,1,1,2,1,1,1,2,1,1,1,0,1,2,2,0,0,2,3,1,1,1,3,2,1,2,3,3,2,2,1,2,4,1,3,"698.7000000476837","","q","","true","practice","2","up","down","0","q","1","0","1665410683804","","","","","","","",""
"","html-keyboard-response",17,183284,"0.0-2.3-0.3",58,19,"f",1665410500128,750,"q","q","Only if I get the answer right","You win money","A fixed time limit",5,"female","not really, but i keep an eye on the ones that changed","no",1,0,0,0,1,2,0,1,0,1,1,1,0,1,0,0,0,0,0,0,0,0,2,2,0,1,0,0,1,1,1,2,1,1,1,2,1,1,1,0,1,2,2,0,0,2,3,1,1,1,3,2,1,2,3,3,2,2,1,2,4,1,3,"570.5","<br><br><br><br><table><tr><td><img src=static/images/oddball_up.png></td><td><img src=static/images/oddball_down.png></td><td><img src=static/images/oddball_down.png></td></tr></table>","81","1","","","","","","","","","","","","","","","","","",""
"","html-keyboard-response",18,185797,"0.0-2.3-1.3",58,19,"f",1665410500128,750,"q","q","Only if I get the answer right","You win money","A fixed time limit",5,"female","not really, but i keep an eye on the ones that changed","no",1,0,0,0,1,2,0,1,0,1,1,1,0,1,0,0,0,0,0,0,0,0,2,2,0,1,0,0,1,1,1,2,1,1,1,2,1,1,1,0,1,2,2,0,0,2,3,1,1,1,3,2,1,2,3,3,2,2,1,2,4,1,3,"null","<div style=""font-size:75px;""><b>Correct</b></div>","null","","","","","","","","","","","","","","","","","","",""
"","html-keyboard-response",19,186803,"0.0-2.3-2.3",58,19,"f",1665410500128,750,"q","q","Only if I get the answer right","You win money","A fixed time limit",5,"female","not really, but i keep an eye on the ones that changed","no",1,0,0,0,1,2,0,1,0,1,1,1,0,1,0,0,0,0,0,0,0,0,2,2,0,1,0,0,1,1,1,2,1,1,1,2,1,1,1,0,1,2,2,0,0,2,3,1,1,1,3,2,1,2,3,3,2,2,1,2,4,1,3,"570.5","","q","","true","practice","3","down","up","0","q","1","0","1665410687894","","","","","","","",""
"","html-keyboard-response",20,187484,"0.0-2.4-0.4",58,19,"f",1665410500128,750,"q","q","Only if I get the answer right","You win money","A fixed time limit",5,"female","not really, but i keep an eye on the ones that changed","no",1,0,0,0,1,2,0,1,0,1,1,1,0,1,0,0,0,0,0,0,0,0,2,2,0,1,0,0,1,1,1,2,1,1,1,2,1,1,1,0,1,2,2,0,0,2,3,1,1,1,3,2,1,2,3,3,2,2,1,2,4,1,3,"681.1000001430511","<br><br><br><br><table><tr><td><img src=static/images/oddball_down.png></td><td><img src=static/images/oddball_down.png></td><td><img src=static/images/oddball_up.png></td></tr></table>","69","1","","","","","","","","","","","","","","","","","",""
"","html-keyboard-response",21,189989,"0.0-2.4-1.4",58,19,"f",1665410500128,750,"q","q","Only if I get the answer right","You win money","A fixed time limit",5,"female","not really, but i keep an eye on the ones that changed","no",1,0,0,0,1,2,0,1,0,1,1,1,0,1,0,0,0,0,0,0,0,0,2,2,0,1,0,0,1,1,1,2,1,1,1,2,1,1,1,0,1,2,2,0,0,2,3,1,1,1,3,2,1,2,3,3,2,2,1,2,4,1,3,"null","<div style=""font-size:75px;""><b>Correct</b></div>","null","","","","","","","","","","","","","","","","","","",""
"","html-keyboard-response",22,190993,"0.0-2.4-2.4",58,19,"f",1665410500128,750,"q","q","Only if I get the answer right","You win money","A fixed time limit",5,"female","not really, but i keep an eye on the ones that changed","no",1,0,0,0,1,2,0,1,0,1,1,1,0,1,0,0,0,0,0,0,0,0,2,2,0,1,0,0,1,1,1,2,1,1,1,2,1,1,1,0,1,2,2,0,0,2,3,1,1,1,3,2,1,2,3,3,2,2,1,2,4,1,3,"681.1000001430511","","e","","true","practice","4","down","up","2","e","1","0","1665410692084","","","","","","","",""
"","html-keyboard-response",23,191756,"0.0-2.5-0.5",58,19,"f",1665410500128,750,"q","q","Only if I get the answer right","You win money","A fixed time limit",5,"female","not really, but i keep an eye on the ones that changed","no",1,0,0,0,1,2,0,1,0,1,1,1,0,1,0,0,0,0,0,0,0,0,2,2,0,1,0,0,1,1,1,2,1,1,1,2,1,1,1,0,1,2,2,0,0,2,3,1,1,1,3,2,1,2,3,3,2,2,1,2,4,1,3,"762","<br><br><br><br><table><tr><td><img src=static/images/oddball_up.png></td><td><img src=static/images/oddball_up.png></td><td><img src=static/images/oddball_down.png></td></tr></table>","69","1","","","","","","","","","","","","","","","","","",""
"","html-keyboard-response",24,194265,"0.0-2.5-1.5",58,19,"f",1665410500128,750,"q","q","Only if I get the answer right","You win money","A fixed time limit",5,"female","not really, but i keep an eye on the ones that changed","no",1,0,0,0,1,2,0,1,0,1,1,1,0,1,0,0,0,0,0,0,0,0,2,2,0,1,0,0,1,1,1,2,1,1,1,2,1,1,1,0,1,2,2,0,0,2,3,1,1,1,3,2,1,2,3,3,2,2,1,2,4,1,3,"null","<div style=""font-size:75px;""><b>Correct</b></div>","null","","","","","","","","","","","","","","","","","","",""
"","html-keyboard-response",25,196076,"0.0-2.5-2.5",58,19,"f",1665410500128,750,"q","q","Only if I get the answer right","You win money","A fixed time limit",5,"female","not really, but i keep an eye on the ones that changed","no",1,0,0,0,1,2,0,1,0,1,1,1,0,1,0,0,0,0,0,0,0,0,2,2,0,1,0,0,1,1,1,2,1,1,1,2,1,1,1,0,1,2,2,0,0,2,3,1,1,1,3,2,1,2,3,3,2,2,1,2,4,1,3,"762","","e","","true","practice","5","up","down","2","e","1","0","1665410697167","","","","","","","",""
"","html-keyboard-response",26,196676,"0.0-2.6-0.6",58,19,"f",1665410500128,750,"q","q","Only if I get the answer right","You win money","A fixed time limit",5,"female","not really, but i keep an eye on the ones that changed","no",1,0,0,0,1,2,0,1,0,1,1,1,0,1,0,0,0,0,0,0,0,0,2,2,0,1,0,0,1,1,1,2,1,1,1,2,1,1,1,0,1,2,2,0,0,2,3,1,1,1,3,2,1,2,3,3,2,2,1,2,4,1,3,"515.2999999523163","<br><br><br><br><table><tr><td><img src=static/images/oddball_down.png></td><td><img src=static/images/oddball_up.png></td><td><img src=static/images/oddball_down.png></td></tr></table>","87","1","","","","","","","","","","","","","","","","","",""
"","html-keyboard-response",27,199189,"0.0-2.6-1.6",58,19,"f",1665410500128,750,"q","q","Only if I get the answer right","You win money","A fixed time limit",5,"female","not really, but i keep an eye on the ones that changed","no",1,0,0,0,1,2,0,1,0,1,1,1,0,1,0,0,0,0,0,0,0,0,2,2,0,1,0,0,1,1,1,2,1,1,1,2,1,1,1,0,1,2,2,0,0,2,3,1,1,1,3,2,1,2,3,3,2,2,1,2,4,1,3,"null","<div style=""font-size:75px;""><b>Correct</b></div>","null","","","","","","","","","","","","","","","","","","",""
"","html-keyboard-response",28,200246,"0.0-2.6-2.6",58,19,"f",1665410500128,750,"q","q","Only if I get the answer right","You win money","A fixed time limit",5,"female","not really, but i keep an eye on the ones that changed","no",1,0,0,0,1,2,0,1,0,1,1,1,0,1,0,0,0,0,0,0,0,0,2,2,0,1,0,0,1,1,1,2,1,1,1,2,1,1,1,0,1,2,2,0,0,2,3,1,1,1,3,2,1,2,3,3,2,2,1,2,4,1,3,"515.2999999523163","","w","","true","practice","6","down","up","1","w","1","0","1665410701337","","","","","","","",""
"","html-keyboard-response",29,201156,"0.0-2.7-0.7",58,19,"f",1665410500128,750,"q","q","Only if I get the answer right","You win money","A fixed time limit",5,"female","not really, but i keep an eye on the ones that changed","no",1,0,0,0,1,2,0,1,0,1,1,1,0,1,0,0,0,0,0,0,0,0,2,2,0,1,0,0,1,1,1,2,1,1,1,2,1,1,1,0,1,2,2,0,0,2,3,1,1,1,3,2,1,2,3,3,2,2,1,2,4,1,3,"910","<br><br><br><br><table><tr><td><img src=static/images/oddball_down.png></td><td><img src=static/images/oddball_down.png></td><td><img src=static/images/oddball_up.png></td></tr></table>","69","1","","","","","","","","","","","","","","","","","",""
"","html-keyboard-response",30,203665,"0.0-2.7-1.7",58,19,"f",1665410500128,750,"q","q","Only if I get the answer right","You win money","A fixed time limit",5,"female","not really, but i keep an eye on the ones that changed","no",1,0,0,0,1,2,0,1,0,1,1,1,0,1,0,0,0,0,0,0,0,0,2,2,0,1,0,0,1,1,1,2,1,1,1,2,1,1,1,0,1,2,2,0,0,2,3,1,1,1,3,2,1,2,3,3,2,2,1,2,4,1,3,"null","<div style=""font-size:75px;""><b>Correct</b></div>","null","","","","","","","","","","","","","","","","","","",""
"","html-keyboard-response",31,204669,"0.0-2.7-2.7",58,19,"f",1665410500128,750,"q","q","Only if I get the answer right","You win money","A fixed time limit",5,"female","not really, but i keep an eye on the ones that changed","no",1,0,0,0,1,2,0,1,0,1,1,1,0,1,0,0,0,0,0,0,0,0,2,2,0,1,0,0,1,1,1,2,1,1,1,2,1,1,1,0,1,2,2,0,0,2,3,1,1,1,3,2,1,2,3,3,2,2,1,2,4,1,3,"910","","e","","true","practice","7","down","up","2","e","1","0","1665410705760","","","","","","","",""
"","html-keyboard-response",32,205172,"0.0-2.8-0.8",58,19,"f",1665410500128,750,"q","q","Only if I get the answer right","You win money","A fixed time limit",5,"female","not really, but i keep an eye on the ones that changed","no",1,0,0,0,1,2,0,1,0,1,1,1,0,1,0,0,0,0,0,0,0,0,2,2,0,1,0,0,1,1,1,2,1,1,1,2,1,1,1,0,1,2,2,0,0,2,3,1,1,1,3,2,1,2,3,3,2,2,1,2,4,1,3,"502.09999990463257","<br><br><br><br><table><tr><td><img src=static/images/oddball_up.png></td><td><img src=static/images/oddball_down.png></td><td><img src=static/images/oddball_down.png></td></tr></table>","81","1","","","","","","","","","","","","","","","","","",""
"","html-keyboard-response",33,207688,"0.0-2.8-1.8",58,19,"f",1665410500128,750,"q","q","Only if I get the answer right","You win money","A fixed time limit",5,"female","not really, but i keep an eye on the ones that changed","no",1,0,0,0,1,2,0,1,0,1,1,1,0,1,0,0,0,0,0,0,0,0,2,2,0,1,0,0,1,1,1,2,1,1,1,2,1,1,1,0,1,2,2,0,0,2,3,1,1,1,3,2,1,2,3,3,2,2,1,2,4,1,3,"null","<div style=""font-size:75px;""><b>Correct</b></div>","null","","","","","","","","","","","","","","","","","","",""
"","html-keyboard-response",34,208694,"0.0-2.8-2.8",58,19,"f",1665410500128,750,"q","q","Only if I get the answer right","You win money","A fixed time limit",5,"female","not really, but i keep an eye on the ones that changed","no",1,0,0,0,1,2,0,1,0,1,1,1,0,1,0,0,0,0,0,0,0,0,2,2,0,1,0,0,1,1,1,2,1,1,1,2,1,1,1,0,1,2,2,0,0,2,3,1,1,1,3,2,1,2,3,3,2,2,1,2,4,1,3,"502.09999990463257","","q","","true","practice","8","down","up","0","q","1","0","1665410709785","","","","","","","",""
"","html-keyboard-response",35,209172,"0.0-2.9-0.9",58,19,"f",1665410500128,750,"q","q","Only if I get the answer right","You win money","A fixed time limit",5,"female","not really, but i keep an eye on the ones that changed","no",1,0,0,0,1,2,0,1,0,1,1,1,0,1,0,0,0,0,0,0,0,0,2,2,0,1,0,0,1,1,1,2,1,1,1,2,1,1,1,0,1,2,2,0,0,2,3,1,1,1,3,2,1,2,3,3,2,2,1,2,4,1,3,"477.59999990463257","<br><br><br><br><table><tr><td><img src=static/images/oddball_up.png></td><td><img src=static/images/oddball_up.png></td><td><img src=static/images/oddball_down.png></td></tr></table>","69","1","","","","","","","","","","","","","","","","","",""
"","html-keyboard-response",36,211680,"0.0-2.9-1.9",58,19,"f",1665410500128,750,"q","q","Only if I get the answer right","You win money","A fixed time limit",5,"female","not really, but i keep an eye on the ones that changed","no",1,0,0,0,1,2,0,1,0,1,1,1,0,1,0,0,0,0,0,0,0,0,2,2,0,1,0,0,1,1,1,2,1,1,1,2,1,1,1,0,1,2,2,0,0,2,3,1,1,1,3,2,1,2,3,3,2,2,1,2,4,1,3,"null","<div style=""font-size:75px;""><b>Correct</b></div>","null","","","","","","","","","","","","","","","","","","",""
"","html-keyboard-response",37,212684,"0.0-2.9-2.9",58,19,"f",1665410500128,750,"q","q","Only if I get the answer right","You win money","A fixed time limit",5,"female","not really, but i keep an eye on the ones that changed","no",1,0,0,0,1,2,0,1,0,1,1,1,0,1,0,0,0,0,0,0,0,0,2,2,0,1,0,0,1,1,1,2,1,1,1,2,1,1,1,0,1,2,2,0,0,2,3,1,1,1,3,2,1,2,3,3,2,2,1,2,4,1,3,"477.59999990463257","","e","","true","practice","9","up","down","2","e","1","0","1665410713775","","","","","","","",""
"","html-keyboard-response",38,213396,"0.0-2.10-0.10",58,19,"f",1665410500128,750,"q","q","Only if I get the answer right","You win money","A fixed time limit",5,"female","not really, but i keep an eye on the ones that changed","no",1,0,0,0,1,2,0,1,0,1,1,1,0,1,0,0,0,0,0,0,0,0,2,2,0,1,0,0,1,1,1,2,1,1,1,2,1,1,1,0,1,2,2,0,0,2,3,1,1,1,3,2,1,2,3,3,2,2,1,2,4,1,3,"711.2999999523163","<br><br><br><br><table><tr><td><img src=static/images/oddball_down.png></td><td><img src=static/images/oddball_up.png></td><td><img src=static/images/oddball_down.png></td></tr></table>","87","1","","","","","","","","","","","","","","","","","",""
"","html-keyboard-response",39,215904,"0.0-2.10-1.10",58,19,"f",1665410500128,750,"q","q","Only if I get the answer right","You win money","A fixed time limit",5,"female","not really, but i keep an eye on the ones that changed","no",1,0,0,0,1,2,0,1,0,1,1,1,0,1,0,0,0,0,0,0,0,0,2,2,0,1,0,0,1,1,1,2,1,1,1,2,1,1,1,0,1,2,2,0,0,2,3,1,1,1,3,2,1,2,3,3,2,2,1,2,4,1,3,"null","<div style=""font-size:75px;""><b>Correct</b></div>","null","","","","","","","","","","","","","","","","","","",""
"","html-keyboard-response",40,216909,"0.0-2.10-2.10",58,19,"f",1665410500128,750,"q","q","Only if I get the answer right","You win money","A fixed time limit",5,"female","not really, but i keep an eye on the ones that changed","no",1,0,0,0,1,2,0,1,0,1,1,1,0,1,0,0,0,0,0,0,0,0,2,2,0,1,0,0,1,1,1,2,1,1,1,2,1,1,1,0,1,2,2,0,0,2,3,1,1,1,3,2,1,2,3,3,2,2,1,2,4,1,3,"711.2999999523163","","w","","true","practice","10","down","up","1","w","1","0","1665410718000","","","","","","","",""
"","html-keyboard-response",41,217444,"0.0-2.11-0.11",58,19,"f",1665410500128,750,"q","q","Only if I get the answer right","You win money","A fixed time limit",5,"female","not really, but i keep an eye on the ones that changed","no",1,0,0,0,1,2,0,1,0,1,1,1,0,1,0,0,0,0,0,0,0,0,2,2,0,1,0,0,1,1,1,2,1,1,1,2,1,1,1,0,1,2,2,0,0,2,3,1,1,1,3,2,1,2,3,3,2,2,1,2,4,1,3,"534.7000000476837","<br><br><br><br><table><tr><td><img src=static/images/oddball_down.png></td><td><img src=static/images/oddball_up.png></td><td><img src=static/images/oddball_up.png></td></tr></table>","81","1","","","","","","","","","","","","","","","","","",""
"","html-keyboard-response",42,219946,"0.0-2.11-1.11",58,19,"f",1665410500128,750,"q","q","Only if I get the answer right","You win money","A fixed time limit",5,"female","not really, but i keep an eye on the ones that changed","no",1,0,0,0,1,2,0,1,0,1,1,1,0,1,0,0,0,0,0,0,0,0,2,2,0,1,0,0,1,1,1,2,1,1,1,2,1,1,1,0,1,2,2,0,0,2,3,1,1,1,3,2,1,2,3,3,2,2,1,2,4,1,3,"null","<div style=""font-size:75px;""><b>Correct</b></div>","null","","","","","","","","","","","","","","","","","","",""
"","html-keyboard-response",43,220951,"0.0-2.11-2.11",58,19,"f",1665410500128,750,"q","q","Only if I get the answer right","You win money","A fixed time limit",5,"female","not really, but i keep an eye on the ones that changed","no",1,0,0,0,1,2,0,1,0,1,1,1,0,1,0,0,0,0,0,0,0,0,2,2,0,1,0,0,1,1,1,2,1,1,1,2,1,1,1,0,1,2,2,0,0,2,3,1,1,1,3,2,1,2,3,3,2,2,1,2,4,1,3,"534.7000000476837","","q","","true","practice","11","up","down","0","q","1","0","1665410722042","","","","","","","",""
"","html-keyboard-response",44,221540,"0.0-2.12-0.12",58,19,"f",1665410500128,750,"q","q","Only if I get the answer right","You win money","A fixed time limit",5,"female","not really, but i keep an eye on the ones that changed","no",1,0,0,0,1,2,0,1,0,1,1,1,0,1,0,0,0,0,0,0,0,0,2,2,0,1,0,0,1,1,1,2,1,1,1,2,1,1,1,0,1,2,2,0,0,2,3,1,1,1,3,2,1,2,3,3,2,2,1,2,4,1,3,"588.5","<br><br><br><br><table><tr><td><img src=static/images/oddball_up.png></td><td><img src=static/images/oddball_up.png></td><td><img src=static/images/oddball_down.png></td></tr></table>","87","1","","","","","","","","","","","","","","","","","",""
"","html-keyboard-response",45,224054,"0.0-2.12-1.12",58,19,"f",1665410500128,750,"q","q","Only if I get the answer right","You win money","A fixed time limit",5,"female","not really, but i keep an eye on the ones that changed","no",1,0,0,0,1,2,0,1,0,1,1,1,0,1,0,0,0,0,0,0,0,0,2,2,0,1,0,0,1,1,1,2,1,1,1,2,1,1,1,0,1,2,2,0,0,2,3,1,1,1,3,2,1,2,3,3,2,2,1,2,4,1,3,"null","<div style=""font-size:75px;""><b>Incorrect</b></div><br><br><div font-size:50px;"">The right shape was the odd one out, so you needed to press E!</div>","null","","","","","","","","","","","","","","","","","","",""
"","html-keyboard-response",46,225059,"0.0-2.12-2.12",58,19,"f",1665410500128,750,"q","q","Only if I get the answer right","You win money","A fixed time limit",5,"female","not really, but i keep an eye on the ones that changed","no",1,0,0,0,1,2,0,1,0,1,1,1,0,1,0,0,0,0,0,0,0,0,2,2,0,1,0,0,1,1,1,2,1,1,1,2,1,1,1,0,1,2,2,0,0,2,3,1,1,1,3,2,1,2,3,3,2,2,1,2,4,1,3,"588.5","","w","","true","practice","12","up","down","2","e","0","0","1665410726150","","","","","","","",""
"","html-keyboard-response",47,225908,"0.0-2.13-0.13",58,19,"f",1665410500128,750,"q","q","Only if I get the answer right","You win money","A fixed time limit",5,"female","not really, but i keep an eye on the ones that changed","no",1,0,0,0,1,2,0,1,0,1,1,1,0,1,0,0,0,0,0,0,0,0,2,2,0,1,0,0,1,1,1,2,1,1,1,2,1,1,1,0,1,2,2,0,0,2,3,1,1,1,3,2,1,2,3,3,2,2,1,2,4,1,3,"848.5","<br><br><br><br><table><tr><td><img src=static/images/oddball_down.png></td><td><img src=static/images/oddball_up.png></td><td><img src=static/images/oddball_down.png></td></tr></table>","87","1","","","","","","","","","","","","","","","","","",""
"","html-keyboard-response",48,228413,"0.0-2.13-1.13",58,19,"f",1665410500128,750,"q","q","Only if I get the answer right","You win money","A fixed time limit",5,"female","not really, but i keep an eye on the ones that changed","no",1,0,0,0,1,2,0,1,0,1,1,1,0,1,0,0,0,0,0,0,0,0,2,2,0,1,0,0,1,1,1,2,1,1,1,2,1,1,1,0,1,2,2,0,0,2,3,1,1,1,3,2,1,2,3,3,2,2,1,2,4,1,3,"null","<div style=""font-size:75px;""><b>Correct</b></div>","null","","","","","","","","","","","","","","","","","","",""
"","html-keyboard-response",49,229417,"0.0-2.13-2.13",58,19,"f",1665410500128,750,"q","q","Only if I get the answer right","You win money","A fixed time limit",5,"female","not really, but i keep an eye on the ones that changed","no",1,0,0,0,1,2,0,1,0,1,1,1,0,1,0,0,0,0,0,0,0,0,2,2,0,1,0,0,1,1,1,2,1,1,1,2,1,1,1,0,1,2,2,0,0,2,3,1,1,1,3,2,1,2,3,3,2,2,1,2,4,1,3,"848.5","","w","","true","practice","13","down","up","1","w","1","0","1665410730508","","","","","","","",""
"","html-keyboard-response",50,230460,"0.0-2.14-0.14",58,19,"f",1665410500128,750,"q","q","Only if I get the answer right","You win money","A fixed time limit",5,"female","not really, but i keep an eye on the ones that changed","no",1,0,0,0,1,2,0,1,0,1,1,1,0,1,0,0,0,0,0,0,0,0,2,2,0,1,0,0,1,1,1,2,1,1,1,2,1,1,1,0,1,2,2,0,0,2,3,1,1,1,3,2,1,2,3,3,2,2,1,2,4,1,3,"906.5","<br><br><br><br><table><tr><td><img src=static/images/oddball_up.png></td><td><img src=static/images/oddball_down.png></td><td><img src=static/images/oddball_up.png></td></tr></table>","87","1","","","","","","","","","","","","","","","","","",""
"","html-keyboard-response",51,232970,"0.0-2.14-1.14",58,19,"f",1665410500128,750,"q","q","Only if I get the answer right","You win money","A fixed time limit",5,"female","not really, but i keep an eye on the ones that changed","no",1,0,0,0,1,2,0,1,0,1,1,1,0,1,0,0,0,0,0,0,0,0,2,2,0,1,0,0,1,1,1,2,1,1,1,2,1,1,1,0,1,2,2,0,0,2,3,1,1,1,3,2,1,2,3,3,2,2,1,2,4,1,3,"null","<div style=""font-size:75px;""><b>Correct</b></div>","null","","","","","","","","","","","","","","","","","","",""
"","html-keyboard-response",52,233974,"0.0-2.14-2.14",58,19,"f",1665410500128,750,"q","q","Only if I get the answer right","You win money","A fixed time limit",5,"female","not really, but i keep an eye on the ones that changed","no",1,0,0,0,1,2,0,1,0,1,1,1,0,1,0,0,0,0,0,0,0,0,2,2,0,1,0,0,1,1,1,2,1,1,1,2,1,1,1,0,1,2,2,0,0,2,3,1,1,1,3,2,1,2,3,3,2,2,1,2,4,1,3,"906.5","","w","","true","practice","14","up","down","1","w","1","0","1665410735065","","","","","","","",""
"","html-keyboard-response",53,234532,"0.0-2.15-0.15",58,19,"f",1665410500128,750,"q","q","Only if I get the answer right","You win money","A fixed time limit",5,"female","not really, but i keep an eye on the ones that changed","no",1,0,0,0,1,2,0,1,0,1,1,1,0,1,0,0,0,0,0,0,0,0,2,2,0,1,0,0,1,1,1,2,1,1,1,2,1,1,1,0,1,2,2,0,0,2,3,1,1,1,3,2,1,2,3,3,2,2,1,2,4,1,3,"557.5","<br><br><br><br><table><tr><td><img src=static/images/oddball_down.png></td><td><img src=static/images/oddball_up.png></td><td><img src=static/images/oddball_up.png></td></tr></table>","81","1","","","","","","","","","","","","","","","","","",""
"","html-keyboard-response",54,237044,"0.0-2.15-1.15",58,19,"f",1665410500128,750,"q","q","Only if I get the answer right","You win money","A fixed time limit",5,"female","not really, but i keep an eye on the ones that changed","no",1,0,0,0,1,2,0,1,0,1,1,1,0,1,0,0,0,0,0,0,0,0,2,2,0,1,0,0,1,1,1,2,1,1,1,2,1,1,1,0,1,2,2,0,0,2,3,1,1,1,3,2,1,2,3,3,2,2,1,2,4,1,3,"null","<div style=""font-size:75px;""><b>Correct</b></div>","null","","","","","","","","","","","","","","","","","","",""
"","html-keyboard-response",55,238049,"0.0-2.15-2.15",58,19,"f",1665410500128,750,"q","q","Only if I get the answer right","You win money","A fixed time limit",5,"female","not really, but i keep an eye on the ones that changed","no",1,0,0,0,1,2,0,1,0,1,1,1,0,1,0,0,0,0,0,0,0,0,2,2,0,1,0,0,1,1,1,2,1,1,1,2,1,1,1,0,1,2,2,0,0,2,3,1,1,1,3,2,1,2,3,3,2,2,1,2,4,1,3,"557.5","","q","","true","practice","15","up","down","0","q","1","0","1665410739140","","","","","","","",""
"","html-keyboard-response",56,238604,"0.0-2.16-0.16",58,19,"f",1665410500128,750,"q","q","Only if I get the answer right","You win money","A fixed time limit",5,"female","not really, but i keep an eye on the ones that changed","no",1,0,0,0,1,2,0,1,0,1,1,1,0,1,0,0,0,0,0,0,0,0,2,2,0,1,0,0,1,1,1,2,1,1,1,2,1,1,1,0,1,2,2,0,0,2,3,1,1,1,3,2,1,2,3,3,2,2,1,2,4,1,3,"554.7000000476837","<br><br><br><br><table><tr><td><img src=static/images/oddball_up.png></td><td><img src=static/images/oddball_down.png></td><td><img src=static/images/oddball_up.png></td></tr></table>","87","1","","","","","","","","","","","","","","","","","",""
"","html-keyboard-response",57,241144,"0.0-2.16-1.16",58,19,"f",1665410500128,750,"q","q","Only if I get the answer right","You win money","A fixed time limit",5,"female","not really, but i keep an eye on the ones that changed","no",1,0,0,0,1,2,0,1,0,1,1,1,0,1,0,0,0,0,0,0,0,0,2,2,0,1,0,0,1,1,1,2,1,1,1,2,1,1,1,0,1,2,2,0,0,2,3,1,1,1,3,2,1,2,3,3,2,2,1,2,4,1,3,"null","<div style=""font-size:75px;""><b>Correct</b></div>","null","","","","","","","","","","","","","","","","","","",""
"","html-keyboard-response",58,242156,"0.0-2.16-2.16",58,19,"f",1665410500128,750,"q","q","Only if I get the answer right","You win money","A fixed time limit",5,"female","not really, but i keep an eye on the ones that changed","no",1,0,0,0,1,2,0,1,0,1,1,1,0,1,0,0,0,0,0,0,0,0,2,2,0,1,0,0,1,1,1,2,1,1,1,2,1,1,1,0,1,2,2,0,0,2,3,1,1,1,3,2,1,2,3,3,2,2,1,2,4,1,3,"554.7000000476837","","w","","true","practice","16","up","down","1","w","1","0","1665410743247","","","","","","","",""
"","html-keyboard-response",59,242860,"0.0-2.17-0.17",58,19,"f",1665410500128,750,"q","q","Only if I get the answer right","You win money","A fixed time limit",5,"female","not really, but i keep an eye on the ones that changed","no",1,0,0,0,1,2,0,1,0,1,1,1,0,1,0,0,0,0,0,0,0,0,2,2,0,1,0,0,1,1,1,2,1,1,1,2,1,1,1,0,1,2,2,0,0,2,3,1,1,1,3,2,1,2,3,3,2,2,1,2,4,1,3,"703.1999998092651","<br><br><br><br><table><tr><td><img src=static/images/oddball_down.png></td><td><img src=static/images/oddball_up.png></td><td><img src=static/images/oddball_down.png></td></tr></table>","87","1","","","","","","","","","","","","","","","","","",""
"","html-keyboard-response",60,245376,"0.0-2.17-1.17",58,19,"f",1665410500128,750,"q","q","Only if I get the answer right","You win money","A fixed time limit",5,"female","not really, but i keep an eye on the ones that changed","no",1,0,0,0,1,2,0,1,0,1,1,1,0,1,0,0,0,0,0,0,0,0,2,2,0,1,0,0,1,1,1,2,1,1,1,2,1,1,1,0,1,2,2,0,0,2,3,1,1,1,3,2,1,2,3,3,2,2,1,2,4,1,3,"null","<div style=""font-size:75px;""><b>Correct</b></div>","null","","","","","","","","","","","","","","","","","","",""
"","html-keyboard-response",61,246381,"0.0-2.17-2.17",58,19,"f",1665410500128,750,"q","q","Only if I get the answer right","You win money","A fixed time limit",5,"female","not really, but i keep an eye on the ones that changed","no",1,0,0,0,1,2,0,1,0,1,1,1,0,1,0,0,0,0,0,0,0,0,2,2,0,1,0,0,1,1,1,2,1,1,1,2,1,1,1,0,1,2,2,0,0,2,3,1,1,1,3,2,1,2,3,3,2,2,1,2,4,1,3,"703.1999998092651","","w","","true","practice","17","down","up","1","w","1","0","1665410747472","","","","","","","",""
"","html-keyboard-response",62,247172,"0.0-2.18-0.18",58,19,"f",1665410500128,750,"q","q","Only if I get the answer right","You win money","A fixed time limit",5,"female","not really, but i keep an eye on the ones that changed","no",1,0,0,0,1,2,0,1,0,1,1,1,0,1,0,0,0,0,0,0,0,0,2,2,0,1,0,0,1,1,1,2,1,1,1,2,1,1,1,0,1,2,2,0,0,2,3,1,1,1,3,2,1,2,3,3,2,2,1,2,4,1,3,"790.6000001430511","<br><br><br><br><table><tr><td><img src=static/images/oddball_down.png></td><td><img src=static/images/oddball_up.png></td><td><img src=static/images/oddball_up.png></td></tr></table>","81","1","","","","","","","","","","","","","","","","","",""
"","html-keyboard-response",63,249684,"0.0-2.18-1.18",58,19,"f",1665410500128,750,"q","q","Only if I get the answer right","You win money","A fixed time limit",5,"female","not really, but i keep an eye on the ones that changed","no",1,0,0,0,1,2,0,1,0,1,1,1,0,1,0,0,0,0,0,0,0,0,2,2,0,1,0,0,1,1,1,2,1,1,1,2,1,1,1,0,1,2,2,0,0,2,3,1,1,1,3,2,1,2,3,3,2,2,1,2,4,1,3,"null","<div style=""font-size:75px;""><b>Correct</b></div>","null","","","","","","","","","","","","","","","","","","",""
"","html-keyboard-response",64,250689,"0.0-2.18-2.18",58,19,"f",1665410500128,750,"q","q","Only if I get the answer right","You win money","A fixed time limit",5,"female","not really, but i keep an eye on the ones that changed","no",1,0,0,0,1,2,0,1,0,1,1,1,0,1,0,0,0,0,0,0,0,0,2,2,0,1,0,0,1,1,1,2,1,1,1,2,1,1,1,0,1,2,2,0,0,2,3,1,1,1,3,2,1,2,3,3,2,2,1,2,4,1,3,"790.6000001430511","","q","","true","practice","18","up","down","0","q","1","0","1665410751780","","","","","","","",""
"","html-keyboard-response",65,251332,"0.0-2.19-0.19",58,19,"f",1665410500128,750,"q","q","Only if I get the answer right","You win money","A fixed time limit",5,"female","not really, but i keep an eye on the ones that changed","no",1,0,0,0,1,2,0,1,0,1,1,1,0,1,0,0,0,0,0,0,0,0,2,2,0,1,0,0,1,1,1,2,1,1,1,2,1,1,1,0,1,2,2,0,0,2,3,1,1,1,3,2,1,2,3,3,2,2,1,2,4,1,3,"642.2999999523163","<br><br><br><br><table><tr><td><img src=static/images/oddball_down.png></td><td><img src=static/images/oddball_down.png></td><td><img src=static/images/oddball_up.png></td></tr></table>","87","1","","","","","","","","","","","","","","","","","",""
"","html-keyboard-response",66,253842,"0.0-2.19-1.19",58,19,"f",1665410500128,750,"q","q","Only if I get the answer right","You win money","A fixed time limit",5,"female","not really, but i keep an eye on the ones that changed","no",1,0,0,0,1,2,0,1,0,1,1,1,0,1,0,0,0,0,0,0,0,0,2,2,0,1,0,0,1,1,1,2,1,1,1,2,1,1,1,0,1,2,2,0,0,2,3,1,1,1,3,2,1,2,3,3,2,2,1,2,4,1,3,"null","<div style=""font-size:75px;""><b>Incorrect</b></div><br><br><div font-size:50px;"">The right shape was the odd one out, so you needed to press E!</div>","null","","","","","","","","","","","","","","","","","","",""
"","html-keyboard-response",67,254846,"0.0-2.19-2.19",58,19,"f",1665410500128,750,"q","q","Only if I get the answer right","You win money","A fixed time limit",5,"female","not really, but i keep an eye on the ones that changed","no",1,0,0,0,1,2,0,1,0,1,1,1,0,1,0,0,0,0,0,0,0,0,2,2,0,1,0,0,1,1,1,2,1,1,1,2,1,1,1,0,1,2,2,0,0,2,3,1,1,1,3,2,1,2,3,3,2,2,1,2,4,1,3,"642.2999999523163","","w","","true","practice","19","down","up","2","e","0","0","1665410755938","","","","","","","",""
"","image-keyboard-response",68,261540,"0.0-3.0-0.0",58,19,"f",1665410500128,750,"q","q","Only if I get the answer right","You win money","A fixed time limit",5,"female","not really, but i keep an eye on the ones that changed","no",1,0,0,0,1,2,0,1,0,1,1,1,0,1,0,0,0,0,0,0,0,0,2,2,0,1,0,0,1,1,1,2,1,1,1,2,1,1,1,0,1,2,2,0,0,2,3,1,1,1,3,2,1,2,3,3,2,2,1,2,4,1,3,"6692.5","static/images/instructions/Slide8.png","39","","","","","","","","","","","","","","","","","","",""
"","image-keyboard-response",69,280078,"0.0-3.1-0.1",58,19,"f",1665410500128,750,"q","q","Only if I get the answer right","You win money","A fixed time limit",5,"female","not really, but i keep an eye on the ones that changed","no",1,0,0,0,1,2,0,1,0,1,1,1,0,1,0,0,0,0,0,0,0,0,2,2,0,1,0,0,1,1,1,2,1,1,1,2,1,1,1,0,1,2,2,0,0,2,3,1,1,1,3,2,1,2,3,3,2,2,1,2,4,1,3,"18309.5","static/images/instructions/Slide9.png","39","","","","","","","","","","","","","","","","","","",""
"","image-keyboard-response",70,289484,"0.0-3.2-0.2",58,19,"f",1665410500128,750,"q","q","Only if I get the answer right","You win money","A fixed time limit",5,"female","not really, but i keep an eye on the ones that changed","no",1,0,0,0,1,2,0,1,0,1,1,1,0,1,0,0,0,0,0,0,0,0,2,2,0,1,0,0,1,1,1,2,1,1,1,2,1,1,1,0,1,2,2,0,0,2,3,1,1,1,3,2,1,2,3,3,2,2,1,2,4,1,3,"9405.299999952316","static/images/instructions/Slide10.png","39","","","","","","","","","","","","","","","","","","",""
"","image-keyboard-response",71,302764,"0.0-3.3-0.3",58,19,"f",1665410500128,750,"q","q","Only if I get the answer right","You win money","A fixed time limit",5,"female","not really, but i keep an eye on the ones that changed","no",1,0,0,0,1,2,0,1,0,1,1,1,0,1,0,0,0,0,0,0,0,0,2,2,0,1,0,0,1,1,1,2,1,1,1,2,1,1,1,0,1,2,2,0,0,2,3,1,1,1,3,2,1,2,3,3,2,2,1,2,4,1,3,"13287.399999856949","static/images/instructions/Slide11.png","39","","","","","","","","","","","","","","","","","","",""
"","image-keyboard-response",72,310627,"0.0-3.4-0.4",58,19,"f",1665410500128,750,"q","q","Only if I get the answer right","You win money","A fixed time limit",5,"female","not really, but i keep an eye on the ones that changed","no",1,0,0,0,1,2,0,1,0,1,1,1,0,1,0,0,0,0,0,0,0,0,2,2,0,1,0,0,1,1,1,2,1,1,1,2,1,1,1,0,1,2,2,0,0,2,3,1,1,1,3,2,1,2,3,3,2,2,1,2,4,1,3,"7863","static/images/instructions/Slide12.png","39","","","","","","","","","","","","","","","","","","",""
"","image-keyboard-response",73,320443,"0.0-3.5-0.5",58,19,"f",1665410500128,750,"q","q","Only if I get the answer right","You win money","A fixed time limit",5,"female","not really, but i keep an eye on the ones that changed","no",1,0,0,0,1,2,0,1,0,1,1,1,0,1,0,0,0,0,0,0,0,0,2,2,0,1,0,0,1,1,1,2,1,1,1,2,1,1,1,0,1,2,2,0,0,2,3,1,1,1,3,2,1,2,3,3,2,2,1,2,4,1,3,"9815.5","static/images/instructions/Slide13.png","39","","","","","","","","","","","","","","","","","","",""
"","image-keyboard-response",74,332236,"0.0-3.6-0.6",58,19,"f",1665410500128,750,"q","q","Only if I get the answer right","You win money","A fixed time limit",5,"female","not really, but i keep an eye on the ones that changed","no",1,0,0,0,1,2,0,1,0,1,1,1,0,1,0,0,0,0,0,0,0,0,2,2,0,1,0,0,1,1,1,2,1,1,1,2,1,1,1,0,1,2,2,0,0,2,3,1,1,1,3,2,1,2,3,3,2,2,1,2,4,1,3,"11791.700000047684","static/images/instructions/Slide14.png","39","","","","","","","","","","","","","","","","","","",""
"","image-keyboard-response",75,339291,"0.0-3.7-0.7",58,19,"f",1665410500128,750,"q","q","Only if I get the answer right","You win money","A fixed time limit",5,"female","not really, but i keep an eye on the ones that changed","no",1,0,0,0,1,2,0,1,0,1,1,1,0,1,0,0,0,0,0,0,0,0,2,2,0,1,0,0,1,1,1,2,1,1,1,2,1,1,1,0,1,2,2,0,0,2,3,1,1,1,3,2,1,2,3,3,2,2,1,2,4,1,3,"7055.200000047684","static/images/instructions/Slide15.png","39","","","","","","","","","","","","","","","","","","",""
"","image-keyboard-response",76,353612,"0.0-3.8-0.8",58,19,"f",1665410500128,750,"q","q","Only if I get the answer right","You win money","A fixed time limit",5,"female","not really, but i keep an eye on the ones that changed","no",1,0,0,0,1,2,0,1,0,1,1,1,0,1,0,0,0,0,0,0,0,0,2,2,0,1,0,0,1,1,1,2,1,1,1,2,1,1,1,0,1,2,2,0,0,2,3,1,1,1,3,2,1,2,3,3,2,2,1,2,4,1,3,"14319.5","static/images/instructions/Slide16.png","39","","","","","","","","","","","","","","","","","","",""
"","image-keyboard-response",77,359515,"0.0-3.9-0.9",58,19,"f",1665410500128,750,"q","q","Only if I get the answer right","You win money","A fixed time limit",5,"female","not really, but i keep an eye on the ones that changed","no",1,0,0,0,1,2,0,1,0,1,1,1,0,1,0,0,0,0,0,0,0,0,2,2,0,1,0,0,1,1,1,2,1,1,1,2,1,1,1,0,1,2,2,0,0,2,3,1,1,1,3,2,1,2,3,3,2,2,1,2,4,1,3,"5903.399999856949","static/images/instructions/Slide17.png","39","","","","","","","","","","","","","","","","","","",""
"","survey-multi-choice",78,406365,"0.0-4.0",58,19,"f",1665410500128,750,"q","q","Only if I get the answer right","You win money","A fixed time limit",5,"female","not really, but i keep an eye on the ones that changed","no",1,0,0,0,1,2,0,1,0,1,1,1,0,1,0,0,0,0,0,0,0,0,2,2,0,1,0,0,1,1,1,2,1,1,1,2,1,1,1,0,1,2,2,0,0,2,3,1,1,1,3,2,1,2,3,3,2,2,1,2,4,1,3,"46649.09999990463","","","","","","","","","","","","","","{""q1"":""q"",""q2"":""q"",""q3"":""Only if I get the answer right"",""q4"":""You win money"",""q5"":""A fixed time limit""}","[0,4,2,1,3]","","","","","",""
"","image-keyboard-response",79,412612,"0.0-5.0-0.0",58,19,"f",1665410500128,750,"q","q","Only if I get the answer right","You win money","A fixed time limit",5,"female","not really, but i keep an eye on the ones that changed","no",1,0,0,0,1,2,0,1,0,1,1,1,0,1,0,0,0,0,0,0,0,0,2,2,0,1,0,0,1,1,1,2,1,1,1,2,1,1,1,0,1,2,2,0,0,2,3,1,1,1,3,2,1,2,3,3,2,2,1,2,4,1,3,"6197.900000095367","static/images/instructions/Slide18.png","39","","","","","","","","","","","","","","","","","","",""
"","html-keyboard-response",80,413614,"0.0-6.0-0.0-0.0",58,19,"f",1665410500128,750,"q","q","Only if I get the answer right","You win money","A fixed time limit",5,"female","not really, but i keep an eye on the ones that changed","no",1,0,0,0,1,2,0,1,0,1,1,1,0,1,0,0,0,0,0,0,0,0,2,2,0,1,0,0,1,1,1,2,1,1,1,2,1,1,1,0,1,2,2,0,0,2,3,1,1,1,3,2,1,2,3,3,2,2,1,2,4,1,3,"null","<div style=""font-size:75px;"">3</div>","null","","","","","","","","","","","","","","","","","","",""
"","html-keyboard-response",81,414615,"0.0-6.0-0.1-0.1",58,19,"f",1665410500128,750,"q","q","Only if I get the answer right","You win money","A fixed time limit",5,"female","not really, but i keep an eye on the ones that changed","no",1,0,0,0,1,2,0,1,0,1,1,1,0,1,0,0,0,0,0,0,0,0,2,2,0,1,0,0,1,1,1,2,1,1,1,2,1,1,1,0,1,2,2,0,0,2,3,1,1,1,3,2,1,2,3,3,2,2,1,2,4,1,3,"null","<div style=""font-size:75px;"">2</div>","null","","","","","","","","","","","","","","","","","","",""
"","html-keyboard-response",82,415619,"0.0-6.0-0.2-0.2",58,19,"f",1665410500128,750,"q","q","Only if I get the answer right","You win money","A fixed time limit",5,"female","not really, but i keep an eye on the ones that changed","no",1,0,0,0,1,2,0,1,0,1,1,1,0,1,0,0,0,0,0,0,0,0,2,2,0,1,0,0,1,1,1,2,1,1,1,2,1,1,1,0,1,2,2,0,0,2,3,1,1,1,3,2,1,2,3,3,2,2,1,2,4,1,3,"null","<div style=""font-size:75px;"">1</div>","null","","","","","","","","","","","","","","","","","","",""
"","html-keyboard-response",83,416401,"0.0-6.0-1.0-0.0",58,19,"f",1665410500128,750,"q","q","Only if I get the answer right","You win money","A fixed time limit",5,"female","not really, but i keep an eye on the ones that changed","no",1,0,0,0,1,2,0,1,0,1,1,1,0,1,0,0,0,0,0,0,0,0,2,2,0,1,0,0,1,1,1,2,1,1,1,2,1,1,1,0,1,2,2,0,0,2,3,1,1,1,3,2,1,2,3,3,2,2,1,2,4,1,3,"null","<div style=""color:green; font-size:75px;""><b>$0.02</b></div><br><br><br><br><table><tr><td><img src=static/images/oddball_down.png></td><td><img src=static/images/oddball_down.png></td><td><img src=static/images/oddball_up.png></td></tr></table>","null","","","","","","","","","","","","","","","","","","",""
"","html-keyboard-response",84,416519,"0.0-6.0-1.0-1.0",58,19,"f",1665410500128,750,"q","q","Only if I get the answer right","You win money","A fixed time limit",5,"female","not really, but i keep an eye on the ones that changed","no",1,0,0,0,1,2,0,1,0,1,1,1,0,1,0,0,0,0,0,0,0,0,2,2,0,1,0,0,1,1,1,2,1,1,1,2,1,1,1,0,1,2,2,0,0,2,3,1,1,1,3,2,1,2,3,3,2,2,1,2,4,1,3,"null","","null","","true","0","0","down","up","2","e","0","0","1665410917610","","","false","60","0","0","0.02","true"
"","html-keyboard-response",85,417271,"0.0-6.0-1.1-0.1",58,19,"f",1665410500128,750,"q","q","Only if I get the answer right","You win money","A fixed time limit",5,"female","not really, but i keep an eye on the ones that changed","no",1,0,0,0,1,2,0,1,0,1,1,1,0,1,0,0,0,0,0,0,0,0,2,2,0,1,0,0,1,1,1,2,1,1,1,2,1,1,1,0,1,2,2,0,0,2,3,1,1,1,3,2,1,2,3,3,2,2,1,2,4,1,3,"null","<div style=""color:green; font-size:75px;""><b>$0.02</b></div><br><br><br><br><table><tr><td><img src=static/images/oddball_up.png></td><td><img src=static/images/oddball_down.png></td><td><img src=static/images/oddball_up.png></td></tr></table>","null","","","","","","","","","","","","","","","","","","",""
"","html-keyboard-response",86,417377,"0.0-6.0-1.1-1.1",58,19,"f",1665410500128,750,"q","q","Only if I get the answer right","You win money","A fixed time limit",5,"female","not really, but i keep an eye on the ones that changed","no",1,0,0,0,1,2,0,1,0,1,1,1,0,1,0,0,0,0,0,0,0,0,2,2,0,1,0,0,1,1,1,2,1,1,1,2,1,1,1,0,1,2,2,0,0,2,3,1,1,1,3,2,1,2,3,3,2,2,1,2,4,1,3,"null","","null","","true","0","1","up","down","1","w","0","0","1665410918468","","","false","60","1","0","0.02","true"
"","html-keyboard-response",87,417876,"0.0-6.0-1.2-0.2",58,19,"f",1665410500128,750,"q","q","Only if I get the answer right","You win money","A fixed time limit",5,"female","not really, but i keep an eye on the ones that changed","no",1,0,0,0,1,2,0,1,0,1,1,1,0,1,0,0,0,0,0,0,0,0,2,2,0,1,0,0,1,1,1,2,1,1,1,2,1,1,1,0,1,2,2,0,0,2,3,1,1,1,3,2,1,2,3,3,2,2,1,2,4,1,3,"498.7999999523163","<div style=""color:green; font-size:75px;""><b>$0.02</b></div><br><br><br><br><table><tr><td><img src=static/images/oddball_up.png></td><td><img src=static/images/oddball_down.png></td><td><img src=static/images/oddball_down.png></td></tr></table>","81","1","","","","","","","","","","","","","","","","","",""
"","html-keyboard-response",88,417950.585440253,"0.0-6.0-1.2-1.2",58,19,"f",1665410500128,750,"q","q","Only if I get the answer right","You win money","A fixed time limit",5,"female","not really, but i keep an eye on the ones that changed","no",1,0,0,0,1,2,0,1,0,1,1,1,0,1,0,0,0,0,0,0,0,0,2,2,0,1,0,0,1,1,1,2,1,1,1,2,1,1,1,0,1,2,2,0,0,2,3,1,1,1,3,2,1,2,3,3,2,2,1,2,4,1,3,"466.385440205145","","q","","true","0","2","down","up","0","q","1","0","1665410919041.59","","","false","60","2","0","0.02","false"
"","html-keyboard-response",89,418428,"0.0-6.0-1.3-0.3",58,19,"f",1665410500128,750,"q","q","Only if I get the answer right","You win money","A fixed time limit",5,"female","not really, but i keep an eye on the ones that changed","no",1,0,0,0,1,2,0,1,0,1,1,1,0,1,0,0,0,0,0,0,0,0,2,2,0,1,0,0,1,1,1,2,1,1,1,2,1,1,1,0,1,2,2,0,0,2,3,1,1,1,3,2,1,2,3,3,2,2,1,2,4,1,3,"444.7999999523163","<div style=""color:green; font-size:75px;""><b>$0.02</b></div><br><br><br><br><table><tr><td><img src=static/images/oddball_down.png></td><td><img src=static/images/oddball_down.png></td><td><img src=static/images/oddball_up.png></td></tr></table>","69","1","","","","","","","","","","","","","","","","","",""
"","html-keyboard-response",90,418617.633767487,"0.0-6.0-1.3-1.3",58,19,"f",1665410500128,750,"q","q","Only if I get the answer right","You win money","A fixed time limit",5,"female","not really, but i keep an eye on the ones that changed","no",1,0,0,0,1,2,0,1,0,1,1,1,0,1,0,0,0,0,0,0,0,0,2,2,0,1,0,0,1,1,1,2,1,1,1,2,1,1,1,0,1,2,2,0,0,2,3,1,1,1,3,2,1,2,3,3,2,2,1,2,4,1,3,"528.433767439056","","e","","true","0","3","down","up","2","e","1","0","1665410919709.63","","","false","60","3","0.0166666666666667","0.02","false"
"","html-keyboard-response",91,418956,"0.0-6.0-1.4-0.4",58,19,"f",1665410500128,750,"q","q","Only if I get the answer right","You win money","A fixed time limit",5,"female","not really, but i keep an eye on the ones that changed","no",1,0,0,0,1,2,0,1,0,1,1,1,0,1,0,0,0,0,0,0,0,0,2,2,0,1,0,0,1,1,1,2,1,1,1,2,1,1,1,0,1,2,2,0,0,2,3,1,1,1,3,2,1,2,3,3,2,2,1,2,4,1,3,"420.7999999523163","<div style=""color:green; font-size:75px;""><b>$0.02</b></div><br><br><br><br><table><tr><td><img src=static/images/oddball_up.png></td><td><img src=static/images/oddball_down.png></td><td><img src=static/images/oddball_down.png></td></tr></table>","81","1","","","","","","","","","","","","","","","","","",""
"","html-keyboard-response",92,419113.337902025,"0.0-6.0-1.4-1.4",58,19,"f",1665410500128,750,"q","q","Only if I get the answer right","You win money","A fixed time limit",5,"female","not really, but i keep an eye on the ones that changed","no",1,0,0,0,1,2,0,1,0,1,1,1,0,1,0,0,0,0,0,0,0,0,2,2,0,1,0,0,1,1,1,2,1,1,1,2,1,1,1,0,1,2,2,0,0,2,3,1,1,1,3,2,1,2,3,3,2,2,1,2,4,1,3,"466.137901976842","","q","","true","0","4","down","up","0","q","1","0","1665410920205.34","","","false","60","4","0.0333333333333333","0.02","false"
"","html-keyboard-response",93,419492,"0.0-6.0-1.5-0.5",58,19,"f",1665410500128,750,"q","q","Only if I get the answer right","You win money","A fixed time limit",5,"female","not really, but i keep an eye on the ones that changed","no",1,0,0,0,1,2,0,1,0,1,1,1,0,1,0,0,0,0,0,0,0,0,2,2,0,1,0,0,1,1,1,2,1,1,1,2,1,1,1,0,1,2,2,0,0,2,3,1,1,1,3,2,1,2,3,3,2,2,1,2,4,1,3,"423.2000000476837","<div style=""color:green; font-size:75px;""><b>$0.02</b></div><br><br><br><br><table><tr><td><img src=static/images/oddball_up.png></td><td><img src=static/images/oddball_down.png></td><td><img src=static/images/oddball_down.png></td></tr></table>","81","1","","","","","","","","","","","","","","","","","",""
"","html-keyboard-response",94,419649.350633463,"0.0-6.0-1.5-1.5",58,19,"f",1665410500128,750,"q","q","Only if I get the answer right","You win money","A fixed time limit",5,"female","not really, but i keep an eye on the ones that changed","no",1,0,0,0,1,2,0,1,0,1,1,1,0,1,0,0,0,0,0,0,0,0,2,2,0,1,0,0,1,1,1,2,1,1,1,2,1,1,1,0,1,2,2,0,0,2,3,1,1,1,3,2,1,2,3,3,2,2,1,2,4,1,3,"469.550633511109","","q","","true","0","5","down","up","0","q","1","0","1665410920740.35","","","false","60","5","0.05","0.02","false"
"","html-keyboard-response",95,420188,"0.0-6.0-1.6-0.6",58,19,"f",1665410500128,750,"q","q","Only if I get the answer right","You win money","A fixed time limit",5,"female","not really, but i keep an eye on the ones that changed","no",1,0,0,0,1,2,0,1,0,1,1,1,0,1,0,0,0,0,0,0,0,0,2,2,0,1,0,0,1,1,1,2,1,1,1,2,1,1,1,0,1,2,2,0,0,2,3,1,1,1,3,2,1,2,3,3,2,2,1,2,4,1,3,"584.7000000476837","<div style=""color:green; font-size:75px;""><b>$0.02</b></div><br><br><br><br><table><tr><td><img src=static/images/oddball_up.png></td><td><img src=static/images/oddball_up.png></td><td><img src=static/images/oddball_down.png></td></tr></table>","69","1","","","","","","","","","","","","","","","","","",""
"","html-keyboard-response",96,420224.52182671,"0.0-6.0-1.6-1.6",58,19,"f",1665410500128,750,"q","q","Only if I get the answer right","You win money","A fixed time limit",5,"female","not really, but i keep an eye on the ones that changed","no",1,0,0,0,1,2,0,1,0,1,1,1,0,1,0,0,0,0,0,0,0,0,2,2,0,1,0,0,1,1,1,2,1,1,1,2,1,1,1,0,1,2,2,0,0,2,3,1,1,1,3,2,1,2,3,3,2,2,1,2,4,1,3,"517.221826757804","","e","","true","0","6","up","down","2","e","1","0","1665410921315.52","","","false","60","6","0.0666666666666667","0.02","false"
"","html-keyboard-response",97,420700,"0.0-6.0-1.7-0.7",58,19,"f",1665410500128,750,"q","q","Only if I get the answer right","You win money","A fixed time limit",5,"female","not really, but i keep an eye on the ones that changed","no",1,0,0,0,1,2,0,1,0,1,1,1,0,1,0,0,0,0,0,0,0,0,2,2,0,1,0,0,1,1,1,2,1,1,1,2,1,1,1,0,1,2,2,0,0,2,3,1,1,1,3,2,1,2,3,3,2,2,1,2,4,1,3,"408","<div style=""color:green; font-size:75px;""><b>$0.02</b></div><br><br><br><br><table><tr><td><img src=static/images/oddball_up.png></td><td><img src=static/images/oddball_up.png></td><td><img src=static/images/oddball_down.png></td></tr></table>","69","1","","","","","","","","","","","","","","","","","",""
"","html-keyboard-response",98,420819.735780421,"0.0-6.0-1.7-1.7",58,19,"f",1665410500128,750,"q","q","Only if I get the answer right","You win money","A fixed time limit",5,"female","not really, but i keep an eye on the ones that changed","no",1,0,0,0,1,2,0,1,0,1,1,1,0,1,0,0,0,0,0,0,0,0,2,2,0,1,0,0,1,1,1,2,1,1,1,2,1,1,1,0,1,2,2,0,0,2,3,1,1,1,3,2,1,2,3,3,2,2,1,2,4,1,3,"422.736","","e","","true","0","7","up","down","2","e","1","0","1665410921910.74","","","false","60","7","0.0833333333333333","0.02","false"
"","html-keyboard-response",99,421228,"0.0-6.0-1.8-0.8",58,19,"f",1665410500128,750,"q","q","Only if I get the answer right","You win money","A fixed time limit",5,"female","not really, but i keep an eye on the ones that changed","no",1,0,0,0,1,2,0,1,0,1,1,1,0,1,0,0,0,0,0,0,0,0,2,2,0,1,0,0,1,1,1,2,1,1,1,2,1,1,1,0,1,2,2,0,0,2,3,1,1,1,3,2,1,2,3,3,2,2,1,2,4,1,3,"422.90000009536743","<div style=""color:green; font-size:75px;""><b>$0.02</b></div><br><br><br><br><table><tr><td><img src=static/images/oddball_up.png></td><td><img src=static/images/oddball_up.png></td><td><img src=static/images/oddball_down.png></td></tr></table>","69","1","","","","","","","","","","","","","","","","","",""
"","html-keyboard-response",100,421368.472139517,"0.0-6.0-1.8-1.8",58,19,"f",1665410500128,750,"q","q","Only if I get the answer right","You win money","A fixed time limit",5,"female","not really, but i keep an eye on the ones that changed","no",1,0,0,0,1,2,0,1,0,1,1,1,0,1,0,0,0,0,0,0,0,0,2,2,0,1,0,0,1,1,1,2,1,1,1,2,1,1,1,0,1,2,2,0,0,2,3,1,1,1,3,2,1,2,3,3,2,2,1,2,4,1,3,"459.372139612714","","e","","true","0","8","up","down","2","e","1","0","1665410922460.47","","","false","60","8","0.1","0.02","false"
"","html-keyboard-response",101,421812,"0.0-6.0-1.9-0.9",58,19,"f",1665410500128,750,"q","q","Only if I get the answer right","You win money","A fixed time limit",5,"female","not really, but i keep an eye on the ones that changed","no",1,0,0,0,1,2,0,1,0,1,1,1,0,1,0,0,0,0,0,0,0,0,2,2,0,1,0,0,1,1,1,2,1,1,1,2,1,1,1,0,1,2,2,0,0,2,3,1,1,1,3,2,1,2,3,3,2,2,1,2,4,1,3,"479.19999980926514","<div style=""color:green; font-size:75px;""><b>$0.02</b></div><br><br><br><br><table><tr><td><img src=static/images/oddball_up.png></td><td><img src=static/images/oddball_down.png></td><td><img src=static/images/oddball_up.png></td></tr></table>","87","1","","","","","","","","","","","","","","","","","",""
"","html-keyboard-response",102,421890.469050229,"0.0-6.0-1.9-1.9",58,19,"f",1665410500128,750,"q","q","Only if I get the answer right","You win money","A fixed time limit",5,"female","not really, but i keep an eye on the ones that changed","no",1,0,0,0,1,2,0,1,0,1,1,1,0,1,0,0,0,0,0,0,0,0,2,2,0,1,0,0,1,1,1,2,1,1,1,2,1,1,1,0,1,2,2,0,0,2,3,1,1,1,3,2,1,2,3,3,2,2,1,2,4,1,3,"444.669050037881","","w","","true","0","9","up","down","1","w","1","0","1665410922981.47","","","false","60","9","0.116666666666667","0.02","false"
"","html-keyboard-response",103,422436,"0.0-6.0-1.10-0.10",58,19,"f",1665410500128,750,"q","q","Only if I get the answer right","You win money","A fixed time limit",5,"female","not really, but i keep an eye on the ones that changed","no",1,0,0,0,1,2,0,1,0,1,1,1,0,1,0,0,0,0,0,0,0,0,2,2,0,1,0,0,1,1,1,2,1,1,1,2,1,1,1,0,1,2,2,0,0,2,3,1,1,1,3,2,1,2,3,3,2,2,1,2,4,1,3,"510.7000000476837","<div style=""color:green; font-size:75px;""><b>$0.02</b></div><br><br><br><br><table><tr><td><img src=static/images/oddball_up.png></td><td><img src=static/images/oddball_down.png></td><td><img src=static/images/oddball_up.png></td></tr></table>","87","1","","","","","","","","","","","","","","","","","",""
"","html-keyboard-response",104,422500.819271394,"0.0-6.0-1.10-1.10",58,19,"f",1665410500128,750,"q","q","Only if I get the answer right","You win money","A fixed time limit",5,"female","not really, but i keep an eye on the ones that changed","no",1,0,0,0,1,2,0,1,0,1,1,1,0,1,0,0,0,0,0,0,0,0,2,2,0,1,0,0,1,1,1,2,1,1,1,2,1,1,1,0,1,2,2,0,0,2,3,1,1,1,3,2,1,2,3,3,2,2,1,2,4,1,3,"470.519271441666","","w","","true","0","10","up","down","1","w","1","0","1665410923591.82","","","false","60","10","0.133333333333333","0.02","false"
"","html-keyboard-response",105,423076,"0.0-6.0-1.11-0.11",58,19,"f",1665410500128,750,"q","q","Only if I get the answer right","You win money","A fixed time limit",5,"female","not really, but i keep an eye on the ones that changed","no",1,0,0,0,1,2,0,1,0,1,1,1,0,1,0,0,0,0,0,0,0,0,2,2,0,1,0,0,1,1,1,2,1,1,1,2,1,1,1,0,1,2,2,0,0,2,3,1,1,1,3,2,1,2,3,3,2,2,1,2,4,1,3,"534.2999999523163","<div style=""color:green; font-size:75px;""><b>$0.02</b></div><br><br><br><br><table><tr><td><img src=static/images/oddball_up.png></td><td><img src=static/images/oddball_down.png></td><td><img src=static/images/oddball_down.png></td></tr></table>","81","1","","","","","","","","","","","","","","","","","",""
"","html-keyboard-response",106,423206.783904437,"0.0-6.0-1.11-1.11",58,19,"f",1665410500128,750,"q","q","Only if I get the answer right","You win money","A fixed time limit",5,"female","not really, but i keep an eye on the ones that changed","no",1,0,0,0,1,2,0,1,0,1,1,1,0,1,0,0,0,0,0,0,0,0,2,2,0,1,0,0,1,1,1,2,1,1,1,2,1,1,1,0,1,2,2,0,0,2,3,1,1,1,3,2,1,2,3,3,2,2,1,2,4,1,3,"549.083904389301","","q","","true","0","11","down","up","0","q","1","0","1665410924297.78","","","false","60","11","0.15","0.02","false"
"","html-keyboard-response",107,423692,"0.0-6.0-1.12-0.12",58,19,"f",1665410500128,750,"q","q","Only if I get the answer right","You win money","A fixed time limit",5,"female","not really, but i keep an eye on the ones that changed","no",1,0,0,0,1,2,0,1,0,1,1,1,0,1,0,0,0,0,0,0,0,0,2,2,0,1,0,0,1,1,1,2,1,1,1,2,1,1,1,0,1,2,2,0,0,2,3,1,1,1,3,2,1,2,3,3,2,2,1,2,4,1,3,"500","<div style=""color:green; font-size:75px;""><b>$0.02</b></div><br><br><br><br><table><tr><td><img src=static/images/oddball_up.png></td><td><img src=static/images/oddball_down.png></td><td><img src=static/images/oddball_up.png></td></tr></table>","87","1","","","","","","","","","","","","","","","","","",""
"","html-keyboard-response",108,423861.864597051,"0.0-6.0-1.12-1.12",58,19,"f",1665410500128,750,"q","q","Only if I get the answer right","You win money","A fixed time limit",5,"female","not really, but i keep an eye on the ones that changed","no",1,0,0,0,1,2,0,1,0,1,1,1,0,1,0,0,0,0,0,0,0,0,2,2,0,1,0,0,1,1,1,2,1,1,1,2,1,1,1,0,1,2,2,0,0,2,3,1,1,1,3,2,1,2,3,3,2,2,1,2,4,1,3,"566.865","","w","","true","0","12","up","down","1","w","1","0","1665410924952.86","","","false","60","12","0.166666666666667","0.02","false"
"","html-keyboard-response",109,424269,"0.0-6.0-1.13-0.13",58,19,"f",1665410500128,750,"q","q","Only if I get the answer right","You win money","A fixed time limit",5,"female","not really, but i keep an eye on the ones that changed","no",1,0,0,0,1,2,0,1,0,1,1,1,0,1,0,0,0,0,0,0,0,0,2,2,0,1,0,0,1,1,1,2,1,1,1,2,1,1,1,0,1,2,2,0,0,2,3,1,1,1,3,2,1,2,3,3,2,2,1,2,4,1,3,"473.2000000476837","<div style=""color:green; font-size:75px;""><b>$0.02</b></div><br><br><br><br><table><tr><td><img src=static/images/oddball_down.png></td><td><img src=static/images/oddball_down.png></td><td><img src=static/images/oddball_up.png></td></tr></table>","69","1","","","","","","","","","","","","","","","","","",""
"","html-keyboard-response",110,424409.997271036,"0.0-6.0-1.13-1.13",58,19,"f",1665410500128,750,"q","q","Only if I get the answer right","You win money","A fixed time limit",5,"female","not really, but i keep an eye on the ones that changed","no",1,0,0,0,1,2,0,1,0,1,1,1,0,1,0,0,0,0,0,0,0,0,2,2,0,1,0,0,1,1,1,2,1,1,1,2,1,1,1,0,1,2,2,0,0,2,3,1,1,1,3,2,1,2,3,3,2,2,1,2,4,1,3,"504.197271083326","","e","","true","0","13","down","up","2","e","1","0","1665410925501","","","false","60","13","0.183333333333333","0.02","false"
"","html-keyboard-response",111,424860,"0.0-6.0-1.14-0.14",58,19,"f",1665410500128,750,"q","q","Only if I get the answer right","You win money","A fixed time limit",5,"female","not really, but i keep an eye on the ones that changed","no",1,0,0,0,1,2,0,1,0,1,1,1,0,1,0,0,0,0,0,0,0,0,2,2,0,1,0,0,1,1,1,2,1,1,1,2,1,1,1,0,1,2,2,0,0,2,3,1,1,1,3,2,1,2,3,3,2,2,1,2,4,1,3,"481.09999990463257","<div style=""color:green; font-size:75px;""><b>$0.02</b></div><br><br><br><br><table><tr><td><img src=static/images/oddball_down.png></td><td><img src=static/images/oddball_up.png></td><td><img src=static/images/oddball_down.png></td></tr></table>","87","1","","","","","","","","","","","","","","","","","",""
"","html-keyboard-response",112,424937.406099255,"0.0-6.0-1.14-1.14",58,19,"f",1665410500128,750,"q","q","Only if I get the answer right","You win money","A fixed time limit",5,"female","not really, but i keep an eye on the ones that changed","no",1,0,0,0,1,2,0,1,0,1,1,1,0,1,0,0,0,0,0,0,0,0,2,2,0,1,0,0,1,1,1,2,1,1,1,2,1,1,1,0,1,2,2,0,0,2,3,1,1,1,3,2,1,2,3,3,2,2,1,2,4,1,3,"455.506099159588","","w","","true","0","14","down","up","1","w","1","0","1665410926028.41","","","false","60","14","0.2","0.02","false"
"","html-keyboard-response",113,425390,"0.0-6.0-1.15-0.15",58,19,"f",1665410500128,750,"q","q","Only if I get the answer right","You win money","A fixed time limit",5,"female","not really, but i keep an eye on the ones that changed","no",1,0,0,0,1,2,0,1,0,1,1,1,0,1,0,0,0,0,0,0,0,0,2,2,0,1,0,0,1,1,1,2,1,1,1,2,1,1,1,0,1,2,2,0,0,2,3,1,1,1,3,2,1,2,3,3,2,2,1,2,4,1,3,"441.19999980926514","<div style=""color:green; font-size:75px;""><b>$0.02</b></div><br><br><br><br><table><tr><td><img src=static/images/oddball_up.png></td><td><img src=static/images/oddball_down.png></td><td><img src=static/images/oddball_down.png></td></tr></table>","81","1","","","","","","","","","","","","","","","","","",""
"","html-keyboard-response",114,425488.142189005,"0.0-6.0-1.15-1.15",58,19,"f",1665410500128,750,"q","q","Only if I get the answer right","You win money","A fixed time limit",5,"female","not really, but i keep an eye on the ones that changed","no",1,0,0,0,1,2,0,1,0,1,1,1,0,1,0,0,0,0,0,0,0,0,2,2,0,1,0,0,1,1,1,2,1,1,1,2,1,1,1,0,1,2,2,0,0,2,3,1,1,1,3,2,1,2,3,3,2,2,1,2,4,1,3,"430.342188814377","","q","","true","0","15","down","up","0","q","1","0","1665410926579.14","","","false","60","15","0.216666666666667","0.02","false"
"","html-keyboard-response",115,425982,"0.0-6.0-1.16-0.16",58,19,"f",1665410500128,750,"q","q","Only if I get the answer right","You win money","A fixed time limit",5,"female","not really, but i keep an eye on the ones that changed","no",1,0,0,0,1,2,0,1,0,1,1,1,0,1,0,0,0,0,0,0,0,0,2,2,0,1,0,0,1,1,1,2,1,1,1,2,1,1,1,0,1,2,2,0,0,2,3,1,1,1,3,2,1,2,3,3,2,2,1,2,4,1,3,"482.2999999523163","<div style=""color:green; font-size:75px;""><b>$0.02</b></div><br><br><br><br><table><tr><td><img src=static/images/oddball_down.png></td><td><img src=static/images/oddball_up.png></td><td><img src=static/images/oddball_down.png></td></tr></table>","87","1","","","","","","","","","","","","","","","","","",""
"","html-keyboard-response",116,426019.648072024,"0.0-6.0-1.16-1.16",58,19,"f",1665410500128,750,"q","q","Only if I get the answer right","You win money","A fixed time limit",5,"female","not really, but i keep an eye on the ones that changed","no",1,0,0,0,1,2,0,1,0,1,1,1,0,1,0,0,0,0,0,0,0,0,2,2,0,1,0,0,1,1,1,2,1,1,1,2,1,1,1,0,1,2,2,0,0,2,3,1,1,1,3,2,1,2,3,3,2,2,1,2,4,1,3,"417.948071976747","","w","","true","0","16","down","up","1","w","1","0","1665410927110.65","","","false","60","16","0.233333333333333","0.02","false"
"","html-keyboard-response",117,426542,"0.0-6.0-1.17-0.17",58,19,"f",1665410500128,750,"q","q","Only if I get the answer right","You win money","A fixed time limit",5,"female","not really, but i keep an eye on the ones that changed","no",1,0,0,0,1,2,0,1,0,1,1,1,0,1,0,0,0,0,0,0,0,0,2,2,0,1,0,0,1,1,1,2,1,1,1,2,1,1,1,0,1,2,2,0,0,2,3,1,1,1,3,2,1,2,3,3,2,2,1,2,4,1,3,"457.7999999523163","<div style=""color:green; font-size:75px;""><b>$0.02</b></div><br><br><br><br><table><tr><td><img src=static/images/oddball_up.png></td><td><img src=static/images/oddball_up.png></td><td><img src=static/images/oddball_down.png></td></tr></table>","69","1","","","","","","","","","","","","","","","","","",""
"","html-keyboard-response",118,426635.095116942,"0.0-6.0-1.17-1.17",58,19,"f",1665410500128,750,"q","q","Only if I get the answer right","You win money","A fixed time limit",5,"female","not really, but i keep an eye on the ones that changed","no",1,0,0,0,1,2,0,1,0,1,1,1,0,1,0,0,0,0,0,0,0,0,2,2,0,1,0,0,1,1,1,2,1,1,1,2,1,1,1,0,1,2,2,0,0,2,3,1,1,1,3,2,1,2,3,3,2,2,1,2,4,1,3,"441.895116894694","","e","","true","0","17","up","down","2","e","1","0","1665410927726.1","","","false","60","17","0.25","0.02","false"
"","html-keyboard-response",119,427114,"0.0-6.0-1.18-0.18",58,19,"f",1665410500128,750,"q","q","Only if I get the answer right","You win money","A fixed time limit",5,"female","not really, but i keep an eye on the ones that changed","no",1,0,0,0,1,2,0,1,0,1,1,1,0,1,0,0,0,0,0,0,0,0,2,2,0,1,0,0,1,1,1,2,1,1,1,2,1,1,1,0,1,2,2,0,0,2,3,1,1,1,3,2,1,2,3,3,2,2,1,2,4,1,3,"450.2000000476837","<div style=""color:green; font-size:75px;""><b>$0.02</b></div><br><br><br><br><table><tr><td><img src=static/images/oddball_down.png></td><td><img src=static/images/oddball_up.png></td><td><img src=static/images/oddball_up.png></td></tr></table>","81","1","","","","","","","","","","","","","","","","","",""
"","html-keyboard-response",120,427111.317772217,"0.0-6.0-1.18-1.18",58,19,"f",1665410500128,750,"q","q","Only if I get the answer right","You win money","A fixed time limit",5,"female","not really, but i keep an eye on the ones that changed","no",1,0,0,0,1,2,0,1,0,1,1,1,0,1,0,0,0,0,0,0,0,0,2,2,0,1,0,0,1,1,1,2,1,1,1,2,1,1,1,0,1,2,2,0,0,2,3,1,1,1,3,2,1,2,3,3,2,2,1,2,4,1,3,"341.51777226453","","q","","true","0","18","up","down","0","q","1","0","1665410928202.32","","","false","60","18","0.266666666666667","0.02","false"
"","html-keyboard-response",121,427654,"0.0-6.0-1.19-0.19",58,19,"f",1665410500128,750,"q","q","Only if I get the answer right","You win money","A fixed time limit",5,"female","not really, but i keep an eye on the ones that changed","no",1,0,0,0,1,2,0,1,0,1,1,1,0,1,0,0,0,0,0,0,0,0,2,2,0,1,0,0,1,1,1,2,1,1,1,2,1,1,1,0,1,2,2,0,0,2,3,1,1,1,3,2,1,2,3,3,2,2,1,2,4,1,3,"433.89999985694885","<div style=""color:green; font-size:75px;""><b>$0.02</b></div><br><br><br><br><table><tr><td><img src=static/images/oddball_up.png></td><td><img src=static/images/oddball_down.png></td><td><img src=static/images/oddball_down.png></td></tr></table>","81","1","","","","","","","","","","","","","","","","","",""
"","html-keyboard-response",122,427779.238588054,"0.0-6.0-1.19-1.19",58,19,"f",1665410500128,750,"q","q","Only if I get the answer right","You win money","A fixed time limit",5,"female","not really, but i keep an eye on the ones that changed","no",1,0,0,0,1,2,0,1,0,1,1,1,0,1,0,0,0,0,0,0,0,0,2,2,0,1,0,0,1,1,1,2,1,1,1,2,1,1,1,0,1,2,2,0,0,2,3,1,1,1,3,2,1,2,3,3,2,2,1,2,4,1,3,"444.138587910666","","q","","true","0","19","down","up","0","q","1","0","1665410928870.24","","","false","60","19","0.283333333333333","0.02","false"
"","html-keyboard-response",123,428190,"0.0-6.0-1.20-0.20",58,19,"f",1665410500128,750,"q","q","Only if I get the answer right","You win money","A fixed time limit",5,"female","not really, but i keep an eye on the ones that changed","no",1,0,0,0,1,2,0,1,0,1,1,1,0,1,0,0,0,0,0,0,0,0,2,2,0,1,0,0,1,1,1,2,1,1,1,2,1,1,1,0,1,2,2,0,0,2,3,1,1,1,3,2,1,2,3,3,2,2,1,2,4,1,3,"420.2999999523163","<div style=""color:green; font-size:75px;""><b>$0.02</b></div><br><br><br><br><table><tr><td><img src=static/images/oddball_up.png></td><td><img src=static/images/oddball_up.png></td><td><img src=static/images/oddball_down.png></td></tr></table>","69","1","","","","","","","","","","","","","","","","","",""
"","html-keyboard-response",124,428481.12027892,"0.0-6.0-1.20-1.20",58,19,"f",1665410500128,750,"q","q","Only if I get the answer right","You win money","A fixed time limit",5,"female","not really, but i keep an eye on the ones that changed","no",1,0,0,0,1,2,0,1,0,1,1,1,0,1,0,0,0,0,0,0,0,0,2,2,0,1,0,0,1,1,1,2,1,1,1,2,1,1,1,0,1,2,2,0,0,2,3,1,1,1,3,2,1,2,3,3,2,2,1,2,4,1,3,"597.420278872341","","e","","true","0","20","up","down","2","e","1","0","1665410929572.12","","","false","60","20","0.3","0.02","false"
"","html-keyboard-response",125,428774,"0.0-6.0-1.21-0.21",58,19,"f",1665410500128,750,"q","q","Only if I get the answer right","You win money","A fixed time limit",5,"female","not really, but i keep an eye on the ones that changed","no",1,0,0,0,1,2,0,1,0,1,1,1,0,1,0,0,0,0,0,0,0,0,2,2,0,1,0,0,1,1,1,2,1,1,1,2,1,1,1,0,1,2,2,0,0,2,3,1,1,1,3,2,1,2,3,3,2,2,1,2,4,1,3,"469.2999999523163","<div style=""color:green; font-size:75px;""><b>$0.02</b></div><br><br><br><br><table><tr><td><img src=static/images/oddball_down.png></td><td><img src=static/images/oddball_down.png></td><td><img src=static/images/oddball_up.png></td></tr></table>","69","1","","","","","","","","","","","","","","","","","",""
"","html-keyboard-response",126,428941.262982386,"0.0-6.0-1.21-1.21",58,19,"f",1665410500128,750,"q","q","Only if I get the answer right","You win money","A fixed time limit",5,"female","not really, but i keep an eye on the ones that changed","no",1,0,0,0,1,2,0,1,0,1,1,1,0,1,0,0,0,0,0,0,0,0,2,2,0,1,0,0,1,1,1,2,1,1,1,2,1,1,1,0,1,2,2,0,0,2,3,1,1,1,3,2,1,2,3,3,2,2,1,2,4,1,3,"521.562982338242","","e","","true","0","21","down","up","2","e","1","0","1665410930032.26","","","false","60","21","0.316666666666667","0.02","false"
"","html-keyboard-response",127,429350,"0.0-6.0-1.22-0.22",58,19,"f",1665410500128,750,"q","q","Only if I get the answer right","You win money","A fixed time limit",5,"female","not really, but i keep an eye on the ones that changed","no",1,0,0,0,1,2,0,1,0,1,1,1,0,1,0,0,0,0,0,0,0,0,2,2,0,1,0,0,1,1,1,2,1,1,1,2,1,1,1,0,1,2,2,0,0,2,3,1,1,1,3,2,1,2,3,3,2,2,1,2,4,1,3,"460.09999990463257","<div style=""color:green; font-size:75px;""><b>$0.02</b></div><br><br><br><br><table><tr><td><img src=static/images/oddball_up.png></td><td><img src=static/images/oddball_up.png></td><td><img src=static/images/oddball_down.png></td></tr></table>","69","1","","","","","","","","","","","","","","","","","",""
"","html-keyboard-response",128,429447.625211141,"0.0-6.0-1.22-1.22",58,19,"f",1665410500128,750,"q","q","Only if I get the answer right","You win money","A fixed time limit",5,"female","not really, but i keep an eye on the ones that changed","no",1,0,0,0,1,2,0,1,0,1,1,1,0,1,0,0,0,0,0,0,0,0,2,2,0,1,0,0,1,1,1,2,1,1,1,2,1,1,1,0,1,2,2,0,0,2,3,1,1,1,3,2,1,2,3,3,2,2,1,2,4,1,3,"450.725211046058","","e","","true","0","22","up","down","2","e","1","0","1665410930538.63","","","false","60","22","0.333333333333333","0.02","false"
"","html-keyboard-response",129,429910,"0.0-6.0-1.23-0.23",58,19,"f",1665410500128,750,"q","q","Only if I get the answer right","You win money","A fixed time limit",5,"female","not really, but i keep an eye on the ones that changed","no",1,0,0,0,1,2,0,1,0,1,1,1,0,1,0,0,0,0,0,0,0,0,2,2,0,1,0,0,1,1,1,2,1,1,1,2,1,1,1,0,1,2,2,0,0,2,3,1,1,1,3,2,1,2,3,3,2,2,1,2,4,1,3,"452.7999999523163","<div style=""color:green; font-size:75px;""><b>$0.02</b></div><br><br><br><br><table><tr><td><img src=static/images/oddball_down.png></td><td><img src=static/images/oddball_down.png></td><td><img src=static/images/oddball_up.png></td></tr></table>","69","1","","","","","","","","","","","","","","","","","",""
"","html-keyboard-response",130,430128.886652462,"0.0-6.0-1.23-1.23",58,19,"f",1665410500128,750,"q","q","Only if I get the answer right","You win money","A fixed time limit",5,"female","not really, but i keep an eye on the ones that changed","no",1,0,0,0,1,2,0,1,0,1,1,1,0,1,0,0,0,0,0,0,0,0,2,2,0,1,0,0,1,1,1,2,1,1,1,2,1,1,1,0,1,2,2,0,0,2,3,1,1,1,3,2,1,2,3,3,2,2,1,2,4,1,3,"556.686652414385","","e","","true","0","23","down","up","2","e","1","0","1665410931219.89","","","false","60","23","0.35","0.02","false"
"","html-keyboard-response",131,430470,"0.0-6.0-1.24-0.24",58,19,"f",1665410500128,750,"q","q","Only if I get the answer right","You win money","A fixed time limit",5,"female","not really, but i keep an eye on the ones that changed","no",1,0,0,0,1,2,0,1,0,1,1,1,0,1,0,0,0,0,0,0,0,0,2,2,0,1,0,0,1,1,1,2,1,1,1,2,1,1,1,0,1,2,2,0,0,2,3,1,1,1,3,2,1,2,3,3,2,2,1,2,4,1,3,"444.7999999523163","<div style=""color:green; font-size:75px;""><b>$0.02</b></div><br><br><br><br><table><tr><td><img src=static/images/oddball_up.png></td><td><img src=static/images/oddball_down.png></td><td><img src=static/images/oddball_down.png></td></tr></table>","81","1","","","","","","","","","","","","","","","","","",""
"","html-keyboard-response",132,430484.64299202,"0.0-6.0-1.24-1.24",58,19,"f",1665410500128,750,"q","q","Only if I get the answer right","You win money","A fixed time limit",5,"female","not really, but i keep an eye on the ones that changed","no",1,0,0,0,1,2,0,1,0,1,1,1,0,1,0,0,0,0,0,0,0,0,2,2,0,1,0,0,1,1,1,2,1,1,1,2,1,1,1,0,1,2,2,0,0,2,3,1,1,1,3,2,1,2,3,3,2,2,1,2,4,1,3,"354.442991972492","","q","","true","0","24","down","up","0","q","1","0","1665410931575.64","","","false","60","24","0.366666666666667","0.02","false"
"","html-keyboard-response",133,431070,"0.0-6.0-1.25-0.25",58,19,"f",1665410500128,750,"q","q","Only if I get the answer right","You win money","A fixed time limit",5,"female","not really, but i keep an eye on the ones that changed","no",1,0,0,0,1,2,0,1,0,1,1,1,0,1,0,0,0,0,0,0,0,0,2,2,0,1,0,0,1,1,1,2,1,1,1,2,1,1,1,0,1,2,2,0,0,2,3,1,1,1,3,2,1,2,3,3,2,2,1,2,4,1,3,"494.09999990463257","<div style=""color:green; font-size:75px;""><b>$0.02</b></div><br><br><br><br><table><tr><td><img src=static/images/oddball_up.png></td><td><img src=static/images/oddball_down.png></td><td><img src=static/images/oddball_down.png></td></tr></table>","81","1","","","","","","","","","","","","","","","","","",""
"","html-keyboard-response",134,431178.683842547,"0.0-6.0-1.25-1.25",58,19,"f",1665410500128,750,"q","q","Only if I get the answer right","You win money","A fixed time limit",5,"female","not really, but i keep an eye on the ones that changed","no",1,0,0,0,1,2,0,1,0,1,1,1,0,1,0,0,0,0,0,0,0,0,2,2,0,1,0,0,1,1,1,2,1,1,1,2,1,1,1,0,1,2,2,0,0,2,3,1,1,1,3,2,1,2,3,3,2,2,1,2,4,1,3,"495.783842451949","","q","","true","0","25","down","up","0","q","1","0","1665410932269.68","","","false","60","25","0.383333333333333","0.02","false"
"","html-keyboard-response",135,431670,"0.0-6.0-1.26-0.26",58,19,"f",1665410500128,750,"q","q","Only if I get the answer right","You win money","A fixed time limit",5,"female","not really, but i keep an eye on the ones that changed","no",1,0,0,0,1,2,0,1,0,1,1,1,0,1,0,0,0,0,0,0,0,0,2,2,0,1,0,0,1,1,1,2,1,1,1,2,1,1,1,0,1,2,2,0,0,2,3,1,1,1,3,2,1,2,3,3,2,2,1,2,4,1,3,"492.7000000476837","<div style=""color:green; font-size:75px;""><b>$0.02</b></div><br><br><br><br><table><tr><td><img src=static/images/oddball_up.png></td><td><img src=static/images/oddball_up.png></td><td><img src=static/images/oddball_down.png></td></tr></table>","69","1","","","","","","","","","","","","","","","","","",""
"","html-keyboard-response",136,431772.889402728,"0.0-6.0-1.26-1.26",58,19,"f",1665410500128,750,"q","q","Only if I get the answer right","You win money","A fixed time limit",5,"female","not really, but i keep an eye on the ones that changed","no",1,0,0,0,1,2,0,1,0,1,1,1,0,1,0,0,0,0,0,0,0,0,2,2,0,1,0,0,1,1,1,2,1,1,1,2,1,1,1,0,1,2,2,0,0,2,3,1,1,1,3,2,1,2,3,3,2,2,1,2,4,1,3,"487.589402775996","","e","","true","0","26","up","down","2","e","1","0","1665410932863.89","","","false","60","26","0.4","0.02","false"
"","html-keyboard-response",137,432238,"0.0-6.0-1.27-0.27",58,19,"f",1665410500128,750,"q","q","Only if I get the answer right","You win money","A fixed time limit",5,"female","not really, but i keep an eye on the ones that changed","no",1,0,0,0,1,2,0,1,0,1,1,1,0,1,0,0,0,0,0,0,0,0,2,2,0,1,0,0,1,1,1,2,1,1,1,2,1,1,1,0,1,2,2,0,0,2,3,1,1,1,3,2,1,2,3,3,2,2,1,2,4,1,3,"459.39999985694885","<div style=""color:green; font-size:75px;""><b>$0.02</b></div><br><br><br><br><table><tr><td><img src=static/images/oddball_up.png></td><td><img src=static/images/oddball_up.png></td><td><img src=static/images/oddball_down.png></td></tr></table>","69","1","","","","","","","","","","","","","","","","","",""
"","html-keyboard-response",138,432328.517017808,"0.0-6.0-1.27-1.27",58,19,"f",1665410500128,750,"q","q","Only if I get the answer right","You win money","A fixed time limit",5,"female","not really, but i keep an eye on the ones that changed","no",1,0,0,0,1,2,0,1,0,1,1,1,0,1,0,0,0,0,0,0,0,0,2,2,0,1,0,0,1,1,1,2,1,1,1,2,1,1,1,0,1,2,2,0,0,2,3,1,1,1,3,2,1,2,3,3,2,2,1,2,4,1,3,"441.917017664681","","e","","true","0","27","up","down","2","e","1","0","1665410933419.52","","","false","60","27","0.416666666666667","0.02","false"
"","html-keyboard-response",139,432822,"0.0-6.0-1.28-0.28",58,19,"f",1665410500128,750,"q","q","Only if I get the answer right","You win money","A fixed time limit",5,"female","not really, but i keep an eye on the ones that changed","no",1,0,0,0,1,2,0,1,0,1,1,1,0,1,0,0,0,0,0,0,0,0,2,2,0,1,0,0,1,1,1,2,1,1,1,2,1,1,1,0,1,2,2,0,0,2,3,1,1,1,3,2,1,2,3,3,2,2,1,2,4,1,3,"475.89999985694885","<div style=""color:green; font-size:75px;""><b>$0.02</b></div><br><br><br><br><table><tr><td><img src=static/images/oddball_up.png></td><td><img src=static/images/oddball_down.png></td><td><img src=static/images/oddball_down.png></td></tr></table>","81","1","","","","","","","","","","","","","","","","","",""
"","html-keyboard-response",140,432851.146068685,"0.0-6.0-1.28-1.28",58,19,"f",1665410500128,750,"q","q","Only if I get the answer right","You win money","A fixed time limit",5,"female","not really, but i keep an eye on the ones that changed","no",1,0,0,0,1,2,0,1,0,1,1,1,0,1,0,0,0,0,0,0,0,0,2,2,0,1,0,0,1,1,1,2,1,1,1,2,1,1,1,0,1,2,2,0,0,2,3,1,1,1,3,2,1,2,3,3,2,2,1,2,4,1,3,"397.046068541804","","q","","true","0","28","down","up","0","q","1","0","1665410933942.15","","","false","60","28","0.433333333333333","0.02","false"
"","html-keyboard-response",141,433502,"0.0-6.0-1.29-0.29",58,19,"f",1665410500128,750,"q","q","Only if I get the answer right","You win money","A fixed time limit",5,"female","not really, but i keep an eye on the ones that changed","no",1,0,0,0,1,2,0,1,0,1,1,1,0,1,0,0,0,0,0,0,0,0,2,2,0,1,0,0,1,1,1,2,1,1,1,2,1,1,1,0,1,2,2,0,0,2,3,1,1,1,3,2,1,2,3,3,2,2,1,2,4,1,3,"571.2000000476837","<div style=""color:green; font-size:75px;""><b>$0.02</b></div><br><br><br><br><table><tr><td><img src=static/images/oddball_down.png></td><td><img src=static/images/oddball_up.png></td><td><img src=static/images/oddball_up.png></td></tr></table>","81","1","","","","","","","","","","","","","","","","","",""
"","html-keyboard-response",142,433615.102539003,"0.0-6.0-1.29-1.29",58,19,"f",1665410500128,750,"q","q","Only if I get the answer right","You win money","A fixed time limit",5,"female","not really, but i keep an eye on the ones that changed","no",1,0,0,0,1,2,0,1,0,1,1,1,0,1,0,0,0,0,0,0,0,0,2,2,0,1,0,0,1,1,1,2,1,1,1,2,1,1,1,0,1,2,2,0,0,2,3,1,1,1,3,2,1,2,3,3,2,2,1,2,4,1,3,"570.302539050375","","q","","true","0","29","up","down","0","q","1","0","1665410934706.1","","","false","60","29","0.45","0.02","false"
"","html-keyboard-response",143,434006,"0.0-6.0-1.30-0.30",58,19,"f",1665410500128,750,"q","q","Only if I get the answer right","You win money","A fixed time limit",5,"female","not really, but i keep an eye on the ones that changed","no",1,0,0,0,1,2,0,1,0,1,1,1,0,1,0,0,0,0,0,0,0,0,2,2,0,1,0,0,1,1,1,2,1,1,1,2,1,1,1,0,1,2,2,0,0,2,3,1,1,1,3,2,1,2,3,3,2,2,1,2,4,1,3,"389.5","<div style=""color:green; font-size:75px;""><b>$0.02</b></div><br><br><br><br><table><tr><td><img src=static/images/oddball_up.png></td><td><img src=static/images/oddball_down.png></td><td><img src=static/images/oddball_down.png></td></tr></table>","81","1","","","","","","","","","","","","","","","","","",""
"","html-keyboard-response",144,434017.930691201,"0.0-6.0-1.30-1.30",58,19,"f",1665410500128,750,"q","q","Only if I get the answer right","You win money","A fixed time limit",5,"female","not really, but i keep an eye on the ones that changed","no",1,0,0,0,1,2,0,1,0,1,1,1,0,1,0,0,0,0,0,0,0,0,2,2,0,1,0,0,1,1,1,2,1,1,1,2,1,1,1,0,1,2,2,0,0,2,3,1,1,1,3,2,1,2,3,3,2,2,1,2,4,1,3,"291.43069","","q","","true","0","30","down","up","0","q","1","0","1665410935108.93","","","false","60","30","0.466666666666667","0.02","false"
"","html-keyboard-response",145,434686,"0.0-6.0-1.31-0.31",58,19,"f",1665410500128,750,"q","q","Only if I get the answer right","You win money","A fixed time limit",5,"female","not really, but i keep an eye on the ones that changed","no",1,0,0,0,1,2,0,1,0,1,1,1,0,1,0,0,0,0,0,0,0,0,2,2,0,1,0,0,1,1,1,2,1,1,1,2,1,1,1,0,1,2,2,0,0,2,3,1,1,1,3,2,1,2,3,3,2,2,1,2,4,1,3,"569.7999999523163","<div style=""color:green; font-size:75px;""><b>$0.02</b></div><br><br><br><br><table><tr><td><img src=static/images/oddball_up.png></td><td><img src=static/images/oddball_up.png></td><td><img src=static/images/oddball_down.png></td></tr></table>","69","1","","","","","","","","","","","","","","","","","",""
"","html-keyboard-response",146,434807.94990774,"0.0-6.0-1.31-1.31",58,19,"f",1665410500128,750,"q","q","Only if I get the answer right","You win money","A fixed time limit",5,"female","not really, but i keep an eye on the ones that changed","no",1,0,0,0,1,2,0,1,0,1,1,1,0,1,0,0,0,0,0,0,0,0,2,2,0,1,0,0,1,1,1,2,1,1,1,2,1,1,1,0,1,2,2,0,0,2,3,1,1,1,3,2,1,2,3,3,2,2,1,2,4,1,3,"577.749907692568","","e","","true","0","31","up","down","2","e","1","0","1665410935898.95","","","false","60","31","0.483333333333333","0.02","false"
"","html-keyboard-response",147,435302,"0.0-6.0-1.32-0.32",58,19,"f",1665410500128,750,"q","q","Only if I get the answer right","You win money","A fixed time limit",5,"female","not really, but i keep an eye on the ones that changed","no",1,0,0,0,1,2,0,1,0,1,1,1,0,1,0,0,0,0,0,0,0,0,2,2,0,1,0,0,1,1,1,2,1,1,1,2,1,1,1,0,1,2,2,0,0,2,3,1,1,1,3,2,1,2,3,3,2,2,1,2,4,1,3,"501.19999980926514","<div style=""color:green; font-size:75px;""><b>$0.02</b></div><br><br><br><br><table><tr><td><img src=static/images/oddball_down.png></td><td><img src=static/images/oddball_down.png></td><td><img src=static/images/oddball_up.png></td></tr></table>","69","1","","","","","","","","","","","","","","","","","",""
"","html-keyboard-response",148,435518.848395139,"0.0-6.0-1.32-1.32",58,19,"f",1665410500128,750,"q","q","Only if I get the answer right","You win money","A fixed time limit",5,"female","not really, but i keep an eye on the ones that changed","no",1,0,0,0,1,2,0,1,0,1,1,1,0,1,0,0,0,0,0,0,0,0,2,2,0,1,0,0,1,1,1,2,1,1,1,2,1,1,1,0,1,2,2,0,0,2,3,1,1,1,3,2,1,2,3,3,2,2,1,2,4,1,3,"603.048394948189","","e","","true","0","32","down","up","2","e","1","0","1665410936609.85","","","false","60","32","0.5","0.02","false"
"","html-keyboard-response",149,435942,"0.0-6.0-1.33-0.33",58,19,"f",1665410500128,750,"q","q","Only if I get the answer right","You win money","A fixed time limit",5,"female","not really, but i keep an eye on the ones that changed","no",1,0,0,0,1,2,0,1,0,1,1,1,0,1,0,0,0,0,0,0,0,0,2,2,0,1,0,0,1,1,1,2,1,1,1,2,1,1,1,0,1,2,2,0,0,2,3,1,1,1,3,2,1,2,3,3,2,2,1,2,4,1,3,"524.2999999523163","<div style=""color:green; font-size:75px;""><b>$0.02</b></div><br><br><br><br><table><tr><td><img src=static/images/oddball_down.png></td><td><img src=static/images/oddball_up.png></td><td><img src=static/images/oddball_up.png></td></tr></table>","81","1","","","","","","","","","","","","","","","","","",""
"","html-keyboard-response",150,436032.592700356,"0.0-6.0-1.33-1.33",58,19,"f",1665410500128,750,"q","q","Only if I get the answer right","You win money","A fixed time limit",5,"female","not really, but i keep an eye on the ones that changed","no",1,0,0,0,1,2,0,1,0,1,1,1,0,1,0,0,0,0,0,0,0,0,2,2,0,1,0,0,1,1,1,2,1,1,1,2,1,1,1,0,1,2,2,0,0,2,3,1,1,1,3,2,1,2,3,3,2,2,1,2,4,1,3,"503.892700308128","","q","","true","0","33","up","down","0","q","1","0","1665410937123.59","","","false","60","33","0.516666666666667","0.02","false"
"","html-keyboard-response",151,436486,"0.0-6.0-1.34-0.34",58,19,"f",1665410500128,750,"q","q","Only if I get the answer right","You win money","A fixed time limit",5,"female","not really, but i keep an eye on the ones that changed","no",1,0,0,0,1,2,0,1,0,1,1,1,0,1,0,0,0,0,0,0,0,0,2,2,0,1,0,0,1,1,1,2,1,1,1,2,1,1,1,0,1,2,2,0,0,2,3,1,1,1,3,2,1,2,3,3,2,2,1,2,4,1,3,"432.40000009536743","<div style=""color:green; font-size:75px;""><b>$0.02</b></div><br><br><br><br><table><tr><td><img src=static/images/oddball_down.png></td><td><img src=static/images/oddball_down.png></td><td><img src=static/images/oddball_up.png></td></tr></table>","69","1","","","","","","","","","","","","","","","","","",""
"","html-keyboard-response",152,436506.589476043,"0.0-6.0-1.34-1.34",58,19,"f",1665410500128,750,"q","q","Only if I get the answer right","You win money","A fixed time limit",5,"female","not really, but i keep an eye on the ones that changed","no",1,0,0,0,1,2,0,1,0,1,1,1,0,1,0,0,0,0,0,0,0,0,2,2,0,1,0,0,1,1,1,2,1,1,1,2,1,1,1,0,1,2,2,0,0,2,3,1,1,1,3,2,1,2,3,3,2,2,1,2,4,1,3,"351.989476138789","","e","","true","0","34","down","up","2","e","1","0","1665410937598.59","","","false","60","34","0.533333333333333","0.02","false"
"","html-keyboard-response",153,437118,"0.0-6.0-1.35-0.35",58,19,"f",1665410500128,750,"q","q","Only if I get the answer right","You win money","A fixed time limit",5,"female","not really, but i keep an eye on the ones that changed","no",1,0,0,0,1,2,0,1,0,1,1,1,0,1,0,0,0,0,0,0,0,0,2,2,0,1,0,0,1,1,1,2,1,1,1,2,1,1,1,0,1,2,2,0,0,2,3,1,1,1,3,2,1,2,3,3,2,2,1,2,4,1,3,"530.1999998092651","<div style=""color:green; font-size:75px;""><b>$0.02</b></div><br><br><br><br><table><tr><td><img src=static/images/oddball_down.png></td><td><img src=static/images/oddball_up.png></td><td><img src=static/images/oddball_down.png></td></tr></table>","87","1","","","","","","","","","","","","","","","","","",""
"","html-keyboard-response",154,437171.617892155,"0.0-6.0-1.35-1.35",58,19,"f",1665410500128,750,"q","q","Only if I get the answer right","You win money","A fixed time limit",5,"female","not really, but i keep an eye on the ones that changed","no",1,0,0,0,1,2,0,1,0,1,1,1,0,1,0,0,0,0,0,0,0,0,2,2,0,1,0,0,1,1,1,2,1,1,1,2,1,1,1,0,1,2,2,0,0,2,3,1,1,1,3,2,1,2,3,3,2,2,1,2,4,1,3,"479.817891963876","","w","","true","0","35","down","up","1","w","1","0","1665410938262.62","","","false","60","35","0.55","0.02","false"
"","html-keyboard-response",155,437742,"0.0-6.0-1.36-0.36",58,19,"f",1665410500128,750,"q","q","Only if I get the answer right","You win money","A fixed time limit",5,"female","not really, but i keep an eye on the ones that changed","no",1,0,0,0,1,2,0,1,0,1,1,1,0,1,0,0,0,0,0,0,0,0,2,2,0,1,0,0,1,1,1,2,1,1,1,2,1,1,1,0,1,2,2,0,0,2,3,1,1,1,3,2,1,2,3,3,2,2,1,2,4,1,3,"520.2000000476837","<div style=""color:green; font-size:75px;""><b>$0.02</b></div><br><br><br><br><table><tr><td><img src=static/images/oddball_down.png></td><td><img src=static/images/oddball_up.png></td><td><img src=static/images/oddball_up.png></td></tr></table>","81","1","","","","","","","","","","","","","","","","","",""
"","html-keyboard-response",156,437917.558444934,"0.0-6.0-1.36-1.36",58,19,"f",1665410500128,750,"q","q","Only if I get the answer right","You win money","A fixed time limit",5,"female","not really, but i keep an eye on the ones that changed","no",1,0,0,0,1,2,0,1,0,1,1,1,0,1,0,0,0,0,0,0,0,0,2,2,0,1,0,0,1,1,1,2,1,1,1,2,1,1,1,0,1,2,2,0,0,2,3,1,1,1,3,2,1,2,3,3,2,2,1,2,4,1,3,"581.758444981529","","q","","true","0","36","up","down","0","q","1","0","1665410939008.56","","","false","60","36","0.566666666666667","0.02","false"
"","html-keyboard-response",157,438406,"0.0-6.0-1.37-0.37",58,19,"f",1665410500128,750,"q","q","Only if I get the answer right","You win money","A fixed time limit",5,"female","not really, but i keep an eye on the ones that changed","no",1,0,0,0,1,2,0,1,0,1,1,1,0,1,0,0,0,0,0,0,0,0,2,2,0,1,0,0,1,1,1,2,1,1,1,2,1,1,1,0,1,2,2,0,0,2,3,1,1,1,3,2,1,2,3,3,2,2,1,2,4,1,3,"549.1999998092651","<div style=""color:green; font-size:75px;""><b>$0.02</b></div><br><br><br><br><table><tr><td><img src=static/images/oddball_down.png></td><td><img src=static/images/oddball_up.png></td><td><img src=static/images/oddball_up.png></td></tr></table>","81","1","","","","","","","","","","","","","","","","","",""
"","html-keyboard-response",158,438636.438391494,"0.0-6.0-1.37-1.37",58,19,"f",1665410500128,750,"q","q","Only if I get the answer right","You win money","A fixed time limit",5,"female","not really, but i keep an eye on the ones that changed","no",1,0,0,0,1,2,0,1,0,1,1,1,0,1,0,0,0,0,0,0,0,0,2,2,0,1,0,0,1,1,1,2,1,1,1,2,1,1,1,0,1,2,2,0,0,2,3,1,1,1,3,2,1,2,3,3,2,2,1,2,4,1,3,"678.638391303171","","q","","true","0","37","up","down","0","q","1","0","1665410939727.44","","","false","60","37","0.583333333333333","0.02","false"
"","html-keyboard-response",159,439054,"0.0-6.0-1.38-0.38",58,19,"f",1665410500128,750,"q","q","Only if I get the answer right","You win money","A fixed time limit",5,"female","not really, but i keep an eye on the ones that changed","no",1,0,0,0,1,2,0,1,0,1,1,1,0,1,0,0,0,0,0,0,0,0,2,2,0,1,0,0,1,1,1,2,1,1,1,2,1,1,1,0,1,2,2,0,0,2,3,1,1,1,3,2,1,2,3,3,2,2,1,2,4,1,3,"546.2999999523163","<div style=""color:green; font-size:75px;""><b>$0.02</b></div><br><br><br><br><table><tr><td><img src=static/images/oddball_up.png></td><td><img src=static/images/oddball_down.png></td><td><img src=static/images/oddball_up.png></td></tr></table>","87","1","","","","","","","","","","","","","","","","","",""
"","html-keyboard-response",160,439043.027734288,"0.0-6.0-1.38-1.38",58,19,"f",1665410500128,750,"q","q","Only if I get the answer right","You win money","A fixed time limit",5,"female","not really, but i keep an eye on the ones that changed","no",1,0,0,0,1,2,0,1,0,1,1,1,0,1,0,0,0,0,0,0,0,0,2,2,0,1,0,0,1,1,1,2,1,1,1,2,1,1,1,0,1,2,2,0,0,2,3,1,1,1,3,2,1,2,3,3,2,2,1,2,4,1,3,"430.327734240615","","w","","true","0","38","up","down","1","w","1","0","1665410940134.03","","","false","60","38","0.6","0.02","false"
"","html-keyboard-response",161,439574,"0.0-6.0-1.39-0.39",58,19,"f",1665410500128,750,"q","q","Only if I get the answer right","You win money","A fixed time limit",5,"female","not really, but i keep an eye on the ones that changed","no",1,0,0,0,1,2,0,1,0,1,1,1,0,1,0,0,0,0,0,0,0,0,2,2,0,1,0,0,1,1,1,2,1,1,1,2,1,1,1,0,1,2,2,0,0,2,3,1,1,1,3,2,1,2,3,3,2,2,1,2,4,1,3,"414.7999999523163","<div style=""color:green; font-size:75px;""><b>$0.02</b></div><br><br><br><br><table><tr><td><img src=static/images/oddball_up.png></td><td><img src=static/images/oddball_down.png></td><td><img src=static/images/oddball_down.png></td></tr></table>","81","1","","","","","","","","","","","","","","","","","",""
"","html-keyboard-response",162,439620.423595569,"0.0-6.0-1.39-1.39",58,19,"f",1665410500128,750,"q","q","Only if I get the answer right","You win money","A fixed time limit",5,"female","not really, but i keep an eye on the ones that changed","no",1,0,0,0,1,2,0,1,0,1,1,1,0,1,0,0,0,0,0,0,0,0,2,2,0,1,0,0,1,1,1,2,1,1,1,2,1,1,1,0,1,2,2,0,0,2,3,1,1,1,3,2,1,2,3,3,2,2,1,2,4,1,3,"359.223595521724","","q","","true","0","39","down","up","0","q","1","0","1665410940711.42","","","false","60","39","0.616666666666667","0.02","false"
"","html-keyboard-response",163,440118,"0.0-6.0-1.40-0.40",58,19,"f",1665410500128,750,"q","q","Only if I get the answer right","You win money","A fixed time limit",5,"female","not really, but i keep an eye on the ones that changed","no",1,0,0,0,1,2,0,1,0,1,1,1,0,1,0,0,0,0,0,0,0,0,2,2,0,1,0,0,1,1,1,2,1,1,1,2,1,1,1,0,1,2,2,0,0,2,3,1,1,1,3,2,1,2,3,3,2,2,1,2,4,1,3,"441.59999990463257","<div style=""color:green; font-size:75px;""><b>$0.02</b></div><br><br><br><br><table><tr><td><img src=static/images/oddball_up.png></td><td><img src=static/images/oddball_down.png></td><td><img src=static/images/oddball_down.png></td></tr></table>","81","1","","","","","","","","","","","","","","","","","",""
"","html-keyboard-response",164,440194.834919873,"0.0-6.0-1.40-1.40",58,19,"f",1665410500128,750,"q","q","Only if I get the answer right","You win money","A fixed time limit",5,"female","not really, but i keep an eye on the ones that changed","no",1,0,0,0,1,2,0,1,0,1,1,1,0,1,0,0,0,0,0,0,0,0,2,2,0,1,0,0,1,1,1,2,1,1,1,2,1,1,1,0,1,2,2,0,0,2,3,1,1,1,3,2,1,2,3,3,2,2,1,2,4,1,3,"409.434919778018","","q","","true","0","40","down","up","0","q","1","0","1665410941285.83","","","false","60","40","0.633333333333333","0.02","false"
"","html-keyboard-response",165,440646,"0.0-6.0-1.41-0.41",58,19,"f",1665410500128,750,"q","q","Only if I get the answer right","You win money","A fixed time limit",5,"female","not really, but i keep an eye on the ones that changed","no",1,0,0,0,1,2,0,1,0,1,1,1,0,1,0,0,0,0,0,0,0,0,2,2,0,1,0,0,1,1,1,2,1,1,1,2,1,1,1,0,1,2,2,0,0,2,3,1,1,1,3,2,1,2,3,3,2,2,1,2,4,1,3,"418.59999990463257","<div style=""color:green; font-size:75px;""><b>$0.02</b></div><br><br><br><br><table><tr><td><img src=static/images/oddball_up.png></td><td><img src=static/images/oddball_down.png></td><td><img src=static/images/oddball_down.png></td></tr></table>","81","1","","","","","","","","","","","","","","","","","",""
"","html-keyboard-response",166,440748.9203581,"0.0-6.0-1.41-1.41",58,19,"f",1665410500128,750,"q","q","Only if I get the answer right","You win money","A fixed time limit",5,"female","not really, but i keep an eye on the ones that changed","no",1,0,0,0,1,2,0,1,0,1,1,1,0,1,0,0,0,0,0,0,0,0,2,2,0,1,0,0,1,1,1,2,1,1,1,2,1,1,1,0,1,2,2,0,0,2,3,1,1,1,3,2,1,2,3,3,2,2,1,2,4,1,3,"405.520358004855","","q","","true","0","41","down","up","0","q","1","0","1665410941839.92","","","false","60","41","0.65","0.02","false"
"","html-keyboard-response",167,441254,"0.0-6.0-1.42-0.42",58,19,"f",1665410500128,750,"q","q","Only if I get the answer right","You win money","A fixed time limit",5,"female","not really, but i keep an eye on the ones that changed","no",1,0,0,0,1,2,0,1,0,1,1,1,0,1,0,0,0,0,0,0,0,0,2,2,0,1,0,0,1,1,1,2,1,1,1,2,1,1,1,0,1,2,2,0,0,2,3,1,1,1,3,2,1,2,3,3,2,2,1,2,4,1,3,"491.5","<div style=""color:green; font-size:75px;""><b>$0.02</b></div><br><br><br><br><table><tr><td><img src=static/images/oddball_down.png></td><td><img src=static/images/oddball_up.png></td><td><img src=static/images/oddball_up.png></td></tr></table>","81","1","","","","","","","","","","","","","","","","","",""
"","html-keyboard-response",168,441442.278438317,"0.0-6.0-1.42-1.42",58,19,"f",1665410500128,750,"q","q","Only if I get the answer right","You win money","A fixed time limit",5,"female","not really, but i keep an eye on the ones that changed","no",1,0,0,0,1,2,0,1,0,1,1,1,0,1,0,0,0,0,0,0,0,0,2,2,0,1,0,0,1,1,1,2,1,1,1,2,1,1,1,0,1,2,2,0,0,2,3,1,1,1,3,2,1,2,3,3,2,2,1,2,4,1,3,"570.77844","","q","","true","0","42","up","down","0","q","1","0","1665410942533.28","","","false","60","42","0.666666666666667","0.02","false"
"","html-keyboard-response",169,441998,"0.0-6.0-1.43-0.43",58,19,"f",1665410500128,750,"q","q","Only if I get the answer right","You win money","A fixed time limit",5,"female","not really, but i keep an eye on the ones that changed","no",1,0,0,0,1,2,0,1,0,1,1,1,0,1,0,0,0,0,0,0,0,0,2,2,0,1,0,0,1,1,1,2,1,1,1,2,1,1,1,0,1,2,2,0,0,2,3,1,1,1,3,2,1,2,3,3,2,2,1,2,4,1,3,"634.8999998569489","<div style=""color:green; font-size:75px;""><b>$0.02</b></div><br><br><br><br><table><tr><td><img src=static/images/oddball_down.png></td><td><img src=static/images/oddball_up.png></td><td><img src=static/images/oddball_down.png></td></tr></table>","87","1","","","","","","","","","","","","","","","","","",""
"","html-keyboard-response",170,442093.878720357,"0.0-6.0-1.43-1.43",58,19,"f",1665410500128,750,"q","q","Only if I get the answer right","You win money","A fixed time limit",5,"female","not really, but i keep an eye on the ones that changed","no",1,0,0,0,1,2,0,1,0,1,1,1,0,1,0,0,0,0,0,0,0,0,2,2,0,1,0,0,1,1,1,2,1,1,1,2,1,1,1,0,1,2,2,0,0,2,3,1,1,1,3,2,1,2,3,3,2,2,1,2,4,1,3,"618.778720214309","","w","","true","0","43","down","up","1","w","1","0","1665410943184.88","","","false","60","43","0.683333333333333","0.02","false"
"","html-keyboard-response",171,442534,"0.0-6.0-1.44-0.44",58,19,"f",1665410500128,750,"q","q","Only if I get the answer right","You win money","A fixed time limit",5,"female","not really, but i keep an eye on the ones that changed","no",1,0,0,0,1,2,0,1,0,1,1,1,0,1,0,0,0,0,0,0,0,0,2,2,0,1,0,0,1,1,1,2,1,1,1,2,1,1,1,0,1,2,2,0,0,2,3,1,1,1,3,2,1,2,3,3,2,2,1,2,4,1,3,"423.40000009536743","<div style=""color:green; font-size:75px;""><b>$0.02</b></div><br><br><br><br><table><tr><td><img src=static/images/oddball_up.png></td><td><img src=static/images/oddball_down.png></td><td><img src=static/images/oddball_down.png></td></tr></table>","81","1","","","","","","","","","","","","","","","","","",""
"","html-keyboard-response",172,442511.476716722,"0.0-6.0-1.44-1.44",58,19,"f",1665410500128,750,"q","q","Only if I get the answer right","You win money","A fixed time limit",5,"female","not really, but i keep an eye on the ones that changed","no",1,0,0,0,1,2,0,1,0,1,1,1,0,1,0,0,0,0,0,0,0,0,2,2,0,1,0,0,1,1,1,2,1,1,1,2,1,1,1,0,1,2,2,0,0,2,3,1,1,1,3,2,1,2,3,3,2,2,1,2,4,1,3,"286.876716817559","","q","","true","0","44","down","up","0","q","1","0","1665410943603.48","","","false","60","44","0.7","0.02","false"
"","html-keyboard-response",173,443038,"0.0-6.0-1.45-0.45",58,19,"f",1665410500128,750,"q","q","Only if I get the answer right","You win money","A fixed time limit",5,"female","not really, but i keep an eye on the ones that changed","no",1,0,0,0,1,2,0,1,0,1,1,1,0,1,0,0,0,0,0,0,0,0,2,2,0,1,0,0,1,1,1,2,1,1,1,2,1,1,1,0,1,2,2,0,0,2,3,1,1,1,3,2,1,2,3,3,2,2,1,2,4,1,3,"389.09999990463257","<div style=""color:green; font-size:75px;""><b>$0.02</b></div><br><br><br><br><table><tr><td><img src=static/images/oddball_up.png></td><td><img src=static/images/oddball_up.png></td><td><img src=static/images/oddball_down.png></td></tr></table>","69","1","","","","","","","","","","","","","","","","","",""
"","html-keyboard-response",174,443123.526193301,"0.0-6.0-1.45-1.45",58,19,"f",1665410500128,750,"q","q","Only if I get the answer right","You win money","A fixed time limit",5,"female","not really, but i keep an eye on the ones that changed","no",1,0,0,0,1,2,0,1,0,1,1,1,0,1,0,0,0,0,0,0,0,0,2,2,0,1,0,0,1,1,1,2,1,1,1,2,1,1,1,0,1,2,2,0,0,2,3,1,1,1,3,2,1,2,3,3,2,2,1,2,4,1,3,"362.626193205378","","e","","true","0","45","up","down","2","e","1","0","1665410944214.53","","","false","60","45","0.716666666666667","0.02","false"
