"success","trial_type","trial_index","time_elapsed","internal_node_id","subject","age","sex","date","deadline","instQ1","instQ2","instQ3","instQ4","instQ5","totalInstQ","gender","strategy","comments","DASS1_s","DASS2_a","DASS3_d","DASS4_a","DASS5_d","DASS6_s","DASS7_a","DASS8_s","DASS9_a","DASS10_d","DASS11_s","DASS12_s","DASS13_d","DASS14_s","DASS15_a","DASS16_d","DASS17_d","DASS18_s","DASS19_a","DASS20_a","DASS21_d","BB1","BB2","BB3","BB4","BB5","BB6","BB7","BB8","BB9","BB10","BB11","BB12","BB13","BB14","BB15","BB16","BB17","BB18","BB19","BB20","BB21","BB22","BB23","BB24","NFC1","NFC2","NFC3","NFC4","NFC5","NFC6","NFC7","NFC8","NFC9","NFC10","NFC11","NFC12","NFC13","NFC14","NFC15","NFC16","NFC17","NFC18","rt","stimulus","key_press","npress","isDataTrial","block","trialinblock","common","odd","oddidx","correct_ans","accuracy","totalTokens","timestamp","responses","question_order","showprog","blocklen","trial","progress","reward","timedout"
"true","fullscreen",0,3697,"0.0-0.0",72,21,"f",1665676449354,750,"q","q","Only if I get the answer right","Nothing","A fixed time limit",4,"female","try to focus on the 3 circles at the same time and quicky scan to detect the normal VS odd pattern","change the color of the circles because my eyes got tired when seeing the same blue background ",1,1,2,2,1,2,0,3,2,1,3,1,1,2,0,0,0,1,0,0,0,1,3,1,0,0,2,0,2,1,2,2,0,1,0,1,1,0,0,1,2,1,1,1,0,1,1,1,3,1,3,3,3,3,1,1,1,0,4,0,1,1,4,"","","","","","","","","","","","","","","","","","","","","",""
"","image-keyboard-response",1,354985,"0.0-1.0-0.0",72,21,"f",1665676449354,750,"q","q","Only if I get the answer right","Nothing","A fixed time limit",4,"female","try to focus on the 3 circles at the same time and quicky scan to detect the normal VS odd pattern","change the color of the circles because my eyes got tired when seeing the same blue background ",1,1,2,2,1,2,0,3,2,1,3,1,1,2,0,0,0,1,0,0,0,1,3,1,0,0,2,0,2,1,2,2,0,1,0,1,1,0,0,1,2,1,1,1,0,1,1,1,3,1,3,3,3,3,1,1,1,0,4,0,1,1,4,"351285.799999997","static/images/instructions/Slide1.png","39","","","","","","","","","","","","","","","","","","",""
"","image-keyboard-response",2,362692,"0.0-1.1-0.1",72,21,"f",1665676449354,750,"q","q","Only if I get the answer right","Nothing","A fixed time limit",4,"female","try to focus on the 3 circles at the same time and quicky scan to detect the normal VS odd pattern","change the color of the circles because my eyes got tired when seeing the same blue background ",1,1,2,2,1,2,0,3,2,1,3,1,1,2,0,0,0,1,0,0,0,1,3,1,0,0,2,0,2,1,2,2,0,1,0,1,1,0,0,1,2,1,1,1,0,1,1,1,3,1,3,3,3,3,1,1,1,0,4,0,1,1,4,"7706","static/images/instructions/Slide2.png","39","","","","","","","","","","","","","","","","","","",""
"","image-keyboard-response",3,370220,"0.0-1.2-0.2",72,21,"f",1665676449354,750,"q","q","Only if I get the answer right","Nothing","A fixed time limit",4,"female","try to focus on the 3 circles at the same time and quicky scan to detect the normal VS odd pattern","change the color of the circles because my eyes got tired when seeing the same blue background ",1,1,2,2,1,2,0,3,2,1,3,1,1,2,0,0,0,1,0,0,0,1,3,1,0,0,2,0,2,1,2,2,0,1,0,1,1,0,0,1,2,1,1,1,0,1,1,1,3,1,3,3,3,3,1,1,1,0,4,0,1,1,4,"7527.30000000447","static/images/instructions/Slide3.png","39","","","","","","","","","","","","","","","","","","",""
"","image-keyboard-response",4,373460,"0.0-1.3-0.3",72,21,"f",1665676449354,750,"q","q","Only if I get the answer right","Nothing","A fixed time limit",4,"female","try to focus on the 3 circles at the same time and quicky scan to detect the normal VS odd pattern","change the color of the circles because my eyes got tired when seeing the same blue background ",1,1,2,2,1,2,0,3,2,1,3,1,1,2,0,0,0,1,0,0,0,1,3,1,0,0,2,0,2,1,2,2,0,1,0,1,1,0,0,1,2,1,1,1,0,1,1,1,3,1,3,3,3,3,1,1,1,0,4,0,1,1,4,"3239.10000000149","static/images/instructions/Slide4.png","39","","","","","","","","","","","","","","","","","","",""
"","image-keyboard-response",5,376796,"0.0-1.4-0.4",72,21,"f",1665676449354,750,"q","q","Only if I get the answer right","Nothing","A fixed time limit",4,"female","try to focus on the 3 circles at the same time and quicky scan to detect the normal VS odd pattern","change the color of the circles because my eyes got tired when seeing the same blue background ",1,1,2,2,1,2,0,3,2,1,3,1,1,2,0,0,0,1,0,0,0,1,3,1,0,0,2,0,2,1,2,2,0,1,0,1,1,0,0,1,2,1,1,1,0,1,1,1,3,1,3,3,3,3,1,1,1,0,4,0,1,1,4,"3335.3000000044703","static/images/instructions/Slide5.png","39","","","","","","","","","","","","","","","","","","",""
"","image-keyboard-response",6,378908,"0.0-1.5-0.5",72,21,"f",1665676449354,750,"q","q","Only if I get the answer right","Nothing","A fixed time limit",4,"female","try to focus on the 3 circles at the same time and quicky scan to detect the normal VS odd pattern","change the color of the circles because my eyes got tired when seeing the same blue background ",1,1,2,2,1,2,0,3,2,1,3,1,1,2,0,0,0,1,0,0,0,1,3,1,0,0,2,0,2,1,2,2,0,1,0,1,1,0,0,1,2,1,1,1,0,1,1,1,3,1,3,3,3,3,1,1,1,0,4,0,1,1,4,"2111.1999999955297","static/images/instructions/Slide6.png","39","","","","","","","","","","","","","","","","","","",""
"","image-keyboard-response",7,423800,"0.0-1.6-0.6",72,21,"f",1665676449354,750,"q","q","Only if I get the answer right","Nothing","A fixed time limit",4,"female","try to focus on the 3 circles at the same time and quicky scan to detect the normal VS odd pattern","change the color of the circles because my eyes got tired when seeing the same blue background ",1,1,2,2,1,2,0,3,2,1,3,1,1,2,0,0,0,1,0,0,0,1,3,1,0,0,2,0,2,1,2,2,0,1,0,1,1,0,0,1,2,1,1,1,0,1,1,1,3,1,3,3,3,3,1,1,1,0,4,0,1,1,4,"44895.39999999851","static/images/instructions/Slide7.png","39","","","","","","","","","","","","","","","","","","",""
"","html-keyboard-response",8,425272,"0.0-2.0-0.0",72,21,"f",1665676449354,750,"q","q","Only if I get the answer right","Nothing","A fixed time limit",4,"female","try to focus on the 3 circles at the same time and quicky scan to detect the normal VS odd pattern","change the color of the circles because my eyes got tired when seeing the same blue background ",1,1,2,2,1,2,0,3,2,1,3,1,1,2,0,0,0,1,0,0,0,1,3,1,0,0,2,0,2,1,2,2,0,1,0,1,1,0,0,1,2,1,1,1,0,1,1,1,3,1,3,3,3,3,1,1,1,0,4,0,1,1,4,"1470.8000000044703","<br><br><br><br><table><tr><td><img src=static/images/oddball_down.png></td><td><img src=static/images/oddball_up.png></td><td><img src=static/images/oddball_down.png></td></tr></table>","87","1","","","","","","","","","","","","","","","","","",""
"","html-keyboard-response",9,427780,"0.0-2.0-1.0",72,21,"f",1665676449354,750,"q","q","Only if I get the answer right","Nothing","A fixed time limit",4,"female","try to focus on the 3 circles at the same time and quicky scan to detect the normal VS odd pattern","change the color of the circles because my eyes got tired when seeing the same blue background ",1,1,2,2,1,2,0,3,2,1,3,1,1,2,0,0,0,1,0,0,0,1,3,1,0,0,2,0,2,1,2,2,0,1,0,1,1,0,0,1,2,1,1,1,0,1,1,1,3,1,3,3,3,3,1,1,1,0,4,0,1,1,4,"null","<div style=""font-size:75px;""><b>Correct</b></div>","null","","","","","","","","","","","","","","","","","","",""
"","html-keyboard-response",10,428784,"0.0-2.0-2.0",72,21,"f",1665676449354,750,"q","q","Only if I get the answer right","Nothing","A fixed time limit",4,"female","try to focus on the 3 circles at the same time and quicky scan to detect the normal VS odd pattern","change the color of the circles because my eyes got tired when seeing the same blue background ",1,1,2,2,1,2,0,3,2,1,3,1,1,2,0,0,0,1,0,0,0,1,3,1,0,0,2,0,2,1,2,2,0,1,0,1,1,0,0,1,2,1,1,1,0,1,1,1,3,1,3,3,3,3,1,1,1,0,4,0,1,1,4,"1470.8000000044703","","w","","true","practice","0","down","up","1","w","1","0","1665676878596","","","","","","","",""
"","html-keyboard-response",11,429192,"0.0-2.1-0.1",72,21,"f",1665676449354,750,"q","q","Only if I get the answer right","Nothing","A fixed time limit",4,"female","try to focus on the 3 circles at the same time and quicky scan to detect the normal VS odd pattern","change the color of the circles because my eyes got tired when seeing the same blue background ",1,1,2,2,1,2,0,3,2,1,3,1,1,2,0,0,0,1,0,0,0,1,3,1,0,0,2,0,2,1,2,2,0,1,0,1,1,0,0,1,2,1,1,1,0,1,1,1,3,1,3,3,3,3,1,1,1,0,4,0,1,1,4,"407.30000000447035","<br><br><br><br><table><tr><td><img src=static/images/oddball_up.png></td><td><img src=static/images/oddball_down.png></td><td><img src=static/images/oddball_up.png></td></tr></table>","87","1","","","","","","","","","","","","","","","","","",""
"","html-keyboard-response",12,431701,"0.0-2.1-1.1",72,21,"f",1665676449354,750,"q","q","Only if I get the answer right","Nothing","A fixed time limit",4,"female","try to focus on the 3 circles at the same time and quicky scan to detect the normal VS odd pattern","change the color of the circles because my eyes got tired when seeing the same blue background ",1,1,2,2,1,2,0,3,2,1,3,1,1,2,0,0,0,1,0,0,0,1,3,1,0,0,2,0,2,1,2,2,0,1,0,1,1,0,0,1,2,1,1,1,0,1,1,1,3,1,3,3,3,3,1,1,1,0,4,0,1,1,4,"null","<div style=""font-size:75px;""><b>Correct</b></div>","null","","","","","","","","","","","","","","","","","","",""
"","html-keyboard-response",13,432707,"0.0-2.1-2.1",72,21,"f",1665676449354,750,"q","q","Only if I get the answer right","Nothing","A fixed time limit",4,"female","try to focus on the 3 circles at the same time and quicky scan to detect the normal VS odd pattern","change the color of the circles because my eyes got tired when seeing the same blue background ",1,1,2,2,1,2,0,3,2,1,3,1,1,2,0,0,0,1,0,0,0,1,3,1,0,0,2,0,2,1,2,2,0,1,0,1,1,0,0,1,2,1,1,1,0,1,1,1,3,1,3,3,3,3,1,1,1,0,4,0,1,1,4,"407.30000000447035","","w","","true","practice","1","up","down","1","w","1","0","1665676882519","","","","","","","",""
"","html-keyboard-response",14,433144,"0.0-2.2-0.2",72,21,"f",1665676449354,750,"q","q","Only if I get the answer right","Nothing","A fixed time limit",4,"female","try to focus on the 3 circles at the same time and quicky scan to detect the normal VS odd pattern","change the color of the circles because my eyes got tired when seeing the same blue background ",1,1,2,2,1,2,0,3,2,1,3,1,1,2,0,0,0,1,0,0,0,1,3,1,0,0,2,0,2,1,2,2,0,1,0,1,1,0,0,1,2,1,1,1,0,1,1,1,3,1,3,3,3,3,1,1,1,0,4,0,1,1,4,"436.3999999985099","<br><br><br><br><table><tr><td><img src=static/images/oddball_up.png></td><td><img src=static/images/oddball_up.png></td><td><img src=static/images/oddball_down.png></td></tr></table>","87","1","","","","","","","","","","","","","","","","","",""
"","html-keyboard-response",15,435644,"0.0-2.2-1.2",72,21,"f",1665676449354,750,"q","q","Only if I get the answer right","Nothing","A fixed time limit",4,"female","try to focus on the 3 circles at the same time and quicky scan to detect the normal VS odd pattern","change the color of the circles because my eyes got tired when seeing the same blue background ",1,1,2,2,1,2,0,3,2,1,3,1,1,2,0,0,0,1,0,0,0,1,3,1,0,0,2,0,2,1,2,2,0,1,0,1,1,0,0,1,2,1,1,1,0,1,1,1,3,1,3,3,3,3,1,1,1,0,4,0,1,1,4,"null","<div style=""font-size:75px;""><b>Incorrect</b></div><br><br><div font-size:50px;"">The right shape was the odd one out, so you needed to press E!</div>","null","","","","","","","","","","","","","","","","","","",""
"","html-keyboard-response",16,436648,"0.0-2.2-2.2",72,21,"f",1665676449354,750,"q","q","Only if I get the answer right","Nothing","A fixed time limit",4,"female","try to focus on the 3 circles at the same time and quicky scan to detect the normal VS odd pattern","change the color of the circles because my eyes got tired when seeing the same blue background ",1,1,2,2,1,2,0,3,2,1,3,1,1,2,0,0,0,1,0,0,0,1,3,1,0,0,2,0,2,1,2,2,0,1,0,1,1,0,0,1,2,1,1,1,0,1,1,1,3,1,3,3,3,3,1,1,1,0,4,0,1,1,4,"436.3999999985099","","w","","true","practice","2","up","down","2","e","0","0","1665676886460","","","","","","","",""
"","html-keyboard-response",17,437400,"0.0-2.3-0.3",72,21,"f",1665676449354,750,"q","q","Only if I get the answer right","Nothing","A fixed time limit",4,"female","try to focus on the 3 circles at the same time and quicky scan to detect the normal VS odd pattern","change the color of the circles because my eyes got tired when seeing the same blue background ",1,1,2,2,1,2,0,3,2,1,3,1,1,2,0,0,0,1,0,0,0,1,3,1,0,0,2,0,2,1,2,2,0,1,0,1,1,0,0,1,2,1,1,1,0,1,1,1,3,1,3,3,3,3,1,1,1,0,4,0,1,1,4,"751.0999999940395","<br><br><br><br><table><tr><td><img src=static/images/oddball_down.png></td><td><img src=static/images/oddball_up.png></td><td><img src=static/images/oddball_down.png></td></tr></table>","87","1","","","","","","","","","","","","","","","","","",""
"","html-keyboard-response",18,439902,"0.0-2.3-1.3",72,21,"f",1665676449354,750,"q","q","Only if I get the answer right","Nothing","A fixed time limit",4,"female","try to focus on the 3 circles at the same time and quicky scan to detect the normal VS odd pattern","change the color of the circles because my eyes got tired when seeing the same blue background ",1,1,2,2,1,2,0,3,2,1,3,1,1,2,0,0,0,1,0,0,0,1,3,1,0,0,2,0,2,1,2,2,0,1,0,1,1,0,0,1,2,1,1,1,0,1,1,1,3,1,3,3,3,3,1,1,1,0,4,0,1,1,4,"null","<div style=""font-size:75px;""><b>Correct</b></div>","null","","","","","","","","","","","","","","","","","","",""
"","html-keyboard-response",19,440907,"0.0-2.3-2.3",72,21,"f",1665676449354,750,"q","q","Only if I get the answer right","Nothing","A fixed time limit",4,"female","try to focus on the 3 circles at the same time and quicky scan to detect the normal VS odd pattern","change the color of the circles because my eyes got tired when seeing the same blue background ",1,1,2,2,1,2,0,3,2,1,3,1,1,2,0,0,0,1,0,0,0,1,3,1,0,0,2,0,2,1,2,2,0,1,0,1,1,0,0,1,2,1,1,1,0,1,1,1,3,1,3,3,3,3,1,1,1,0,4,0,1,1,4,"751.0999999940395","","w","","true","practice","3","down","up","1","w","1","0","1665676890720","","","","","","","",""
"","html-keyboard-response",20,441336,"0.0-2.4-0.4",72,21,"f",1665676449354,750,"q","q","Only if I get the answer right","Nothing","A fixed time limit",4,"female","try to focus on the 3 circles at the same time and quicky scan to detect the normal VS odd pattern","change the color of the circles because my eyes got tired when seeing the same blue background ",1,1,2,2,1,2,0,3,2,1,3,1,1,2,0,0,0,1,0,0,0,1,3,1,0,0,2,0,2,1,2,2,0,1,0,1,1,0,0,1,2,1,1,1,0,1,1,1,3,1,3,3,3,3,1,1,1,0,4,0,1,1,4,"427.69999999552965","<br><br><br><br><table><tr><td><img src=static/images/oddball_up.png></td><td><img src=static/images/oddball_up.png></td><td><img src=static/images/oddball_down.png></td></tr></table>","69","1","","","","","","","","","","","","","","","","","",""
"","html-keyboard-response",21,443841,"0.0-2.4-1.4",72,21,"f",1665676449354,750,"q","q","Only if I get the answer right","Nothing","A fixed time limit",4,"female","try to focus on the 3 circles at the same time and quicky scan to detect the normal VS odd pattern","change the color of the circles because my eyes got tired when seeing the same blue background ",1,1,2,2,1,2,0,3,2,1,3,1,1,2,0,0,0,1,0,0,0,1,3,1,0,0,2,0,2,1,2,2,0,1,0,1,1,0,0,1,2,1,1,1,0,1,1,1,3,1,3,3,3,3,1,1,1,0,4,0,1,1,4,"null","<div style=""font-size:75px;""><b>Correct</b></div>","null","","","","","","","","","","","","","","","","","","",""
"","html-keyboard-response",22,444848,"0.0-2.4-2.4",72,21,"f",1665676449354,750,"q","q","Only if I get the answer right","Nothing","A fixed time limit",4,"female","try to focus on the 3 circles at the same time and quicky scan to detect the normal VS odd pattern","change the color of the circles because my eyes got tired when seeing the same blue background ",1,1,2,2,1,2,0,3,2,1,3,1,1,2,0,0,0,1,0,0,0,1,3,1,0,0,2,0,2,1,2,2,0,1,0,1,1,0,0,1,2,1,1,1,0,1,1,1,3,1,3,3,3,3,1,1,1,0,4,0,1,1,4,"427.69999999552965","","e","","true","practice","4","up","down","2","e","1","0","1665676894660","","","","","","","",""
"","html-keyboard-response",23,445624,"0.0-2.5-0.5",72,21,"f",1665676449354,750,"q","q","Only if I get the answer right","Nothing","A fixed time limit",4,"female","try to focus on the 3 circles at the same time and quicky scan to detect the normal VS odd pattern","change the color of the circles because my eyes got tired when seeing the same blue background ",1,1,2,2,1,2,0,3,2,1,3,1,1,2,0,0,0,1,0,0,0,1,3,1,0,0,2,0,2,1,2,2,0,1,0,1,1,0,0,1,2,1,1,1,0,1,1,1,3,1,3,3,3,3,1,1,1,0,4,0,1,1,4,"775.6999999955297","<br><br><br><br><table><tr><td><img src=static/images/oddball_up.png></td><td><img src=static/images/oddball_down.png></td><td><img src=static/images/oddball_down.png></td></tr></table>","81","1","","","","","","","","","","","","","","","","","",""
"","html-keyboard-response",24,448132,"0.0-2.5-1.5",72,21,"f",1665676449354,750,"q","q","Only if I get the answer right","Nothing","A fixed time limit",4,"female","try to focus on the 3 circles at the same time and quicky scan to detect the normal VS odd pattern","change the color of the circles because my eyes got tired when seeing the same blue background ",1,1,2,2,1,2,0,3,2,1,3,1,1,2,0,0,0,1,0,0,0,1,3,1,0,0,2,0,2,1,2,2,0,1,0,1,1,0,0,1,2,1,1,1,0,1,1,1,3,1,3,3,3,3,1,1,1,0,4,0,1,1,4,"null","<div style=""font-size:75px;""><b>Correct</b></div>","null","","","","","","","","","","","","","","","","","","",""
"","html-keyboard-response",25,449138,"0.0-2.5-2.5",72,21,"f",1665676449354,750,"q","q","Only if I get the answer right","Nothing","A fixed time limit",4,"female","try to focus on the 3 circles at the same time and quicky scan to detect the normal VS odd pattern","change the color of the circles because my eyes got tired when seeing the same blue background ",1,1,2,2,1,2,0,3,2,1,3,1,1,2,0,0,0,1,0,0,0,1,3,1,0,0,2,0,2,1,2,2,0,1,0,1,1,0,0,1,2,1,1,1,0,1,1,1,3,1,3,3,3,3,1,1,1,0,4,0,1,1,4,"775.6999999955297","","q","","true","practice","5","down","up","0","q","1","0","1665676898950","","","","","","","",""
"","html-keyboard-response",26,449608,"0.0-2.6-0.6",72,21,"f",1665676449354,750,"q","q","Only if I get the answer right","Nothing","A fixed time limit",4,"female","try to focus on the 3 circles at the same time and quicky scan to detect the normal VS odd pattern","change the color of the circles because my eyes got tired when seeing the same blue background ",1,1,2,2,1,2,0,3,2,1,3,1,1,2,0,0,0,1,0,0,0,1,3,1,0,0,2,0,2,1,2,2,0,1,0,1,1,0,0,1,2,1,1,1,0,1,1,1,3,1,3,3,3,3,1,1,1,0,4,0,1,1,4,"470","<br><br><br><br><table><tr><td><img src=static/images/oddball_down.png></td><td><img src=static/images/oddball_up.png></td><td><img src=static/images/oddball_up.png></td></tr></table>","81","1","","","","","","","","","","","","","","","","","",""
"","html-keyboard-response",27,452123,"0.0-2.6-1.6",72,21,"f",1665676449354,750,"q","q","Only if I get the answer right","Nothing","A fixed time limit",4,"female","try to focus on the 3 circles at the same time and quicky scan to detect the normal VS odd pattern","change the color of the circles because my eyes got tired when seeing the same blue background ",1,1,2,2,1,2,0,3,2,1,3,1,1,2,0,0,0,1,0,0,0,1,3,1,0,0,2,0,2,1,2,2,0,1,0,1,1,0,0,1,2,1,1,1,0,1,1,1,3,1,3,3,3,3,1,1,1,0,4,0,1,1,4,"null","<div style=""font-size:75px;""><b>Correct</b></div>","null","","","","","","","","","","","","","","","","","","",""
"","html-keyboard-response",28,453128,"0.0-2.6-2.6",72,21,"f",1665676449354,750,"q","q","Only if I get the answer right","Nothing","A fixed time limit",4,"female","try to focus on the 3 circles at the same time and quicky scan to detect the normal VS odd pattern","change the color of the circles because my eyes got tired when seeing the same blue background ",1,1,2,2,1,2,0,3,2,1,3,1,1,2,0,0,0,1,0,0,0,1,3,1,0,0,2,0,2,1,2,2,0,1,0,1,1,0,0,1,2,1,1,1,0,1,1,1,3,1,3,3,3,3,1,1,1,0,4,0,1,1,4,"470","","q","","true","practice","6","up","down","0","q","1","0","1665676902940","","","","","","","",""
"","html-keyboard-response",29,453784,"0.0-2.7-0.7",72,21,"f",1665676449354,750,"q","q","Only if I get the answer right","Nothing","A fixed time limit",4,"female","try to focus on the 3 circles at the same time and quicky scan to detect the normal VS odd pattern","change the color of the circles because my eyes got tired when seeing the same blue background ",1,1,2,2,1,2,0,3,2,1,3,1,1,2,0,0,0,1,0,0,0,1,3,1,0,0,2,0,2,1,2,2,0,1,0,1,1,0,0,1,2,1,1,1,0,1,1,1,3,1,3,3,3,3,1,1,1,0,4,0,1,1,4,"655.3999999985099","<br><br><br><br><table><tr><td><img src=static/images/oddball_down.png></td><td><img src=static/images/oddball_up.png></td><td><img src=static/images/oddball_up.png></td></tr></table>","81","1","","","","","","","","","","","","","","","","","",""
"","html-keyboard-response",30,456297,"0.0-2.7-1.7",72,21,"f",1665676449354,750,"q","q","Only if I get the answer right","Nothing","A fixed time limit",4,"female","try to focus on the 3 circles at the same time and quicky scan to detect the normal VS odd pattern","change the color of the circles because my eyes got tired when seeing the same blue background ",1,1,2,2,1,2,0,3,2,1,3,1,1,2,0,0,0,1,0,0,0,1,3,1,0,0,2,0,2,1,2,2,0,1,0,1,1,0,0,1,2,1,1,1,0,1,1,1,3,1,3,3,3,3,1,1,1,0,4,0,1,1,4,"null","<div style=""font-size:75px;""><b>Correct</b></div>","null","","","","","","","","","","","","","","","","","","",""
"","html-keyboard-response",31,457302,"0.0-2.7-2.7",72,21,"f",1665676449354,750,"q","q","Only if I get the answer right","Nothing","A fixed time limit",4,"female","try to focus on the 3 circles at the same time and quicky scan to detect the normal VS odd pattern","change the color of the circles because my eyes got tired when seeing the same blue background ",1,1,2,2,1,2,0,3,2,1,3,1,1,2,0,0,0,1,0,0,0,1,3,1,0,0,2,0,2,1,2,2,0,1,0,1,1,0,0,1,2,1,1,1,0,1,1,1,3,1,3,3,3,3,1,1,1,0,4,0,1,1,4,"655.3999999985099","","q","","true","practice","7","up","down","0","q","1","0","1665676907114","","","","","","","",""
"","html-keyboard-response",32,457840,"0.0-2.8-0.8",72,21,"f",1665676449354,750,"q","q","Only if I get the answer right","Nothing","A fixed time limit",4,"female","try to focus on the 3 circles at the same time and quicky scan to detect the normal VS odd pattern","change the color of the circles because my eyes got tired when seeing the same blue background ",1,1,2,2,1,2,0,3,2,1,3,1,1,2,0,0,0,1,0,0,0,1,3,1,0,0,2,0,2,1,2,2,0,1,0,1,1,0,0,1,2,1,1,1,0,1,1,1,3,1,3,3,3,3,1,1,1,0,4,0,1,1,4,"536.8999999985099","<br><br><br><br><table><tr><td><img src=static/images/oddball_up.png></td><td><img src=static/images/oddball_up.png></td><td><img src=static/images/oddball_down.png></td></tr></table>","69","1","","","","","","","","","","","","","","","","","",""
"","html-keyboard-response",33,460356,"0.0-2.8-1.8",72,21,"f",1665676449354,750,"q","q","Only if I get the answer right","Nothing","A fixed time limit",4,"female","try to focus on the 3 circles at the same time and quicky scan to detect the normal VS odd pattern","change the color of the circles because my eyes got tired when seeing the same blue background ",1,1,2,2,1,2,0,3,2,1,3,1,1,2,0,0,0,1,0,0,0,1,3,1,0,0,2,0,2,1,2,2,0,1,0,1,1,0,0,1,2,1,1,1,0,1,1,1,3,1,3,3,3,3,1,1,1,0,4,0,1,1,4,"null","<div style=""font-size:75px;""><b>Correct</b></div>","null","","","","","","","","","","","","","","","","","","",""
"","html-keyboard-response",34,461362,"0.0-2.8-2.8",72,21,"f",1665676449354,750,"q","q","Only if I get the answer right","Nothing","A fixed time limit",4,"female","try to focus on the 3 circles at the same time and quicky scan to detect the normal VS odd pattern","change the color of the circles because my eyes got tired when seeing the same blue background ",1,1,2,2,1,2,0,3,2,1,3,1,1,2,0,0,0,1,0,0,0,1,3,1,0,0,2,0,2,1,2,2,0,1,0,1,1,0,0,1,2,1,1,1,0,1,1,1,3,1,3,3,3,3,1,1,1,0,4,0,1,1,4,"536.8999999985099","","e","","true","practice","8","up","down","2","e","1","0","1665676911174","","","","","","","",""
"","html-keyboard-response",35,462168,"0.0-2.9-0.9",72,21,"f",1665676449354,750,"q","q","Only if I get the answer right","Nothing","A fixed time limit",4,"female","try to focus on the 3 circles at the same time and quicky scan to detect the normal VS odd pattern","change the color of the circles because my eyes got tired when seeing the same blue background ",1,1,2,2,1,2,0,3,2,1,3,1,1,2,0,0,0,1,0,0,0,1,3,1,0,0,2,0,2,1,2,2,0,1,0,1,1,0,0,1,2,1,1,1,0,1,1,1,3,1,3,3,3,3,1,1,1,0,4,0,1,1,4,"805.2999999970198","<br><br><br><br><table><tr><td><img src=static/images/oddball_up.png></td><td><img src=static/images/oddball_down.png></td><td><img src=static/images/oddball_up.png></td></tr></table>","87","1","","","","","","","","","","","","","","","","","",""
"","html-keyboard-response",36,464680,"0.0-2.9-1.9",72,21,"f",1665676449354,750,"q","q","Only if I get the answer right","Nothing","A fixed time limit",4,"female","try to focus on the 3 circles at the same time and quicky scan to detect the normal VS odd pattern","change the color of the circles because my eyes got tired when seeing the same blue background ",1,1,2,2,1,2,0,3,2,1,3,1,1,2,0,0,0,1,0,0,0,1,3,1,0,0,2,0,2,1,2,2,0,1,0,1,1,0,0,1,2,1,1,1,0,1,1,1,3,1,3,3,3,3,1,1,1,0,4,0,1,1,4,"null","<div style=""font-size:75px;""><b>Correct</b></div>","null","","","","","","","","","","","","","","","","","","",""
"","html-keyboard-response",37,465684,"0.0-2.9-2.9",72,21,"f",1665676449354,750,"q","q","Only if I get the answer right","Nothing","A fixed time limit",4,"female","try to focus on the 3 circles at the same time and quicky scan to detect the normal VS odd pattern","change the color of the circles because my eyes got tired when seeing the same blue background ",1,1,2,2,1,2,0,3,2,1,3,1,1,2,0,0,0,1,0,0,0,1,3,1,0,0,2,0,2,1,2,2,0,1,0,1,1,0,0,1,2,1,1,1,0,1,1,1,3,1,3,3,3,3,1,1,1,0,4,0,1,1,4,"805.2999999970198","","w","","true","practice","9","up","down","1","w","1","0","1665676915497","","","","","","","",""
"","html-keyboard-response",38,466152,"0.0-2.10-0.10",72,21,"f",1665676449354,750,"q","q","Only if I get the answer right","Nothing","A fixed time limit",4,"female","try to focus on the 3 circles at the same time and quicky scan to detect the normal VS odd pattern","change the color of the circles because my eyes got tired when seeing the same blue background ",1,1,2,2,1,2,0,3,2,1,3,1,1,2,0,0,0,1,0,0,0,1,3,1,0,0,2,0,2,1,2,2,0,1,0,1,1,0,0,1,2,1,1,1,0,1,1,1,3,1,3,3,3,3,1,1,1,0,4,0,1,1,4,"466.79999999701977","<br><br><br><br><table><tr><td><img src=static/images/oddball_up.png></td><td><img src=static/images/oddball_up.png></td><td><img src=static/images/oddball_down.png></td></tr></table>","69","1","","","","","","","","","","","","","","","","","",""
"","html-keyboard-response",39,468656,"0.0-2.10-1.10",72,21,"f",1665676449354,750,"q","q","Only if I get the answer right","Nothing","A fixed time limit",4,"female","try to focus on the 3 circles at the same time and quicky scan to detect the normal VS odd pattern","change the color of the circles because my eyes got tired when seeing the same blue background ",1,1,2,2,1,2,0,3,2,1,3,1,1,2,0,0,0,1,0,0,0,1,3,1,0,0,2,0,2,1,2,2,0,1,0,1,1,0,0,1,2,1,1,1,0,1,1,1,3,1,3,3,3,3,1,1,1,0,4,0,1,1,4,"null","<div style=""font-size:75px;""><b>Correct</b></div>","null","","","","","","","","","","","","","","","","","","",""
"","html-keyboard-response",40,469660,"0.0-2.10-2.10",72,21,"f",1665676449354,750,"q","q","Only if I get the answer right","Nothing","A fixed time limit",4,"female","try to focus on the 3 circles at the same time and quicky scan to detect the normal VS odd pattern","change the color of the circles because my eyes got tired when seeing the same blue background ",1,1,2,2,1,2,0,3,2,1,3,1,1,2,0,0,0,1,0,0,0,1,3,1,0,0,2,0,2,1,2,2,0,1,0,1,1,0,0,1,2,1,1,1,0,1,1,1,3,1,3,3,3,3,1,1,1,0,4,0,1,1,4,"466.79999999701977","","e","","true","practice","10","up","down","2","e","1","0","1665676919472","","","","","","","",""
"","html-keyboard-response",41,469977,"0.0-2.11-0.11",72,21,"f",1665676449354,750,"q","q","Only if I get the answer right","Nothing","A fixed time limit",4,"female","try to focus on the 3 circles at the same time and quicky scan to detect the normal VS odd pattern","change the color of the circles because my eyes got tired when seeing the same blue background ",1,1,2,2,1,2,0,3,2,1,3,1,1,2,0,0,0,1,0,0,0,1,3,1,0,0,2,0,2,1,2,2,0,1,0,1,1,0,0,1,2,1,1,1,0,1,1,1,3,1,3,3,3,3,1,1,1,0,4,0,1,1,4,"316.6000000014901","<br><br><br><br><table><tr><td><img src=static/images/oddball_down.png></td><td><img src=static/images/oddball_up.png></td><td><img src=static/images/oddball_down.png></td></tr></table>","69","1","","","","","","","","","","","","","","","","","",""
"","html-keyboard-response",42,472479,"0.0-2.11-1.11",72,21,"f",1665676449354,750,"q","q","Only if I get the answer right","Nothing","A fixed time limit",4,"female","try to focus on the 3 circles at the same time and quicky scan to detect the normal VS odd pattern","change the color of the circles because my eyes got tired when seeing the same blue background ",1,1,2,2,1,2,0,3,2,1,3,1,1,2,0,0,0,1,0,0,0,1,3,1,0,0,2,0,2,1,2,2,0,1,0,1,1,0,0,1,2,1,1,1,0,1,1,1,3,1,3,3,3,3,1,1,1,0,4,0,1,1,4,"null","<div style=""font-size:75px;""><b>Incorrect</b></div><br><br><div font-size:50px;"">The middle shape was the odd one out, so you needed to press W!</div>","null","","","","","","","","","","","","","","","","","","",""
"","html-keyboard-response",43,473484,"0.0-2.11-2.11",72,21,"f",1665676449354,750,"q","q","Only if I get the answer right","Nothing","A fixed time limit",4,"female","try to focus on the 3 circles at the same time and quicky scan to detect the normal VS odd pattern","change the color of the circles because my eyes got tired when seeing the same blue background ",1,1,2,2,1,2,0,3,2,1,3,1,1,2,0,0,0,1,0,0,0,1,3,1,0,0,2,0,2,1,2,2,0,1,0,1,1,0,0,1,2,1,1,1,0,1,1,1,3,1,3,3,3,3,1,1,1,0,4,0,1,1,4,"316.6000000014901","","e","","true","practice","11","down","up","1","w","0","0","1665676923296","","","","","","","",""
"","html-keyboard-response",44,474184,"0.0-2.12-0.12",72,21,"f",1665676449354,750,"q","q","Only if I get the answer right","Nothing","A fixed time limit",4,"female","try to focus on the 3 circles at the same time and quicky scan to detect the normal VS odd pattern","change the color of the circles because my eyes got tired when seeing the same blue background ",1,1,2,2,1,2,0,3,2,1,3,1,1,2,0,0,0,1,0,0,0,1,3,1,0,0,2,0,2,1,2,2,0,1,0,1,1,0,0,1,2,1,1,1,0,1,1,1,3,1,3,3,3,3,1,1,1,0,4,0,1,1,4,"699","<br><br><br><br><table><tr><td><img src=static/images/oddball_down.png></td><td><img src=static/images/oddball_up.png></td><td><img src=static/images/oddball_down.png></td></tr></table>","87","1","","","","","","","","","","","","","","","","","",""
"","html-keyboard-response",45,476687,"0.0-2.12-1.12",72,21,"f",1665676449354,750,"q","q","Only if I get the answer right","Nothing","A fixed time limit",4,"female","try to focus on the 3 circles at the same time and quicky scan to detect the normal VS odd pattern","change the color of the circles because my eyes got tired when seeing the same blue background ",1,1,2,2,1,2,0,3,2,1,3,1,1,2,0,0,0,1,0,0,0,1,3,1,0,0,2,0,2,1,2,2,0,1,0,1,1,0,0,1,2,1,1,1,0,1,1,1,3,1,3,3,3,3,1,1,1,0,4,0,1,1,4,"null","<div style=""font-size:75px;""><b>Correct</b></div>","null","","","","","","","","","","","","","","","","","","",""
"","html-keyboard-response",46,477694,"0.0-2.12-2.12",72,21,"f",1665676449354,750,"q","q","Only if I get the answer right","Nothing","A fixed time limit",4,"female","try to focus on the 3 circles at the same time and quicky scan to detect the normal VS odd pattern","change the color of the circles because my eyes got tired when seeing the same blue background ",1,1,2,2,1,2,0,3,2,1,3,1,1,2,0,0,0,1,0,0,0,1,3,1,0,0,2,0,2,1,2,2,0,1,0,1,1,0,0,1,2,1,1,1,0,1,1,1,3,1,3,3,3,3,1,1,1,0,4,0,1,1,4,"699","","w","","true","practice","12","down","up","1","w","1","0","1665676927506","","","","","","","",""
"","html-keyboard-response",47,478296,"0.0-2.13-0.13",72,21,"f",1665676449354,750,"q","q","Only if I get the answer right","Nothing","A fixed time limit",4,"female","try to focus on the 3 circles at the same time and quicky scan to detect the normal VS odd pattern","change the color of the circles because my eyes got tired when seeing the same blue background ",1,1,2,2,1,2,0,3,2,1,3,1,1,2,0,0,0,1,0,0,0,1,3,1,0,0,2,0,2,1,2,2,0,1,0,1,1,0,0,1,2,1,1,1,0,1,1,1,3,1,3,3,3,3,1,1,1,0,4,0,1,1,4,"601.6000000014901","<br><br><br><br><table><tr><td><img src=static/images/oddball_up.png></td><td><img src=static/images/oddball_down.png></td><td><img src=static/images/oddball_up.png></td></tr></table>","87","1","","","","","","","","","","","","","","","","","",""
"","html-keyboard-response",48,480810,"0.0-2.13-1.13",72,21,"f",1665676449354,750,"q","q","Only if I get the answer right","Nothing","A fixed time limit",4,"female","try to focus on the 3 circles at the same time and quicky scan to detect the normal VS odd pattern","change the color of the circles because my eyes got tired when seeing the same blue background ",1,1,2,2,1,2,0,3,2,1,3,1,1,2,0,0,0,1,0,0,0,1,3,1,0,0,2,0,2,1,2,2,0,1,0,1,1,0,0,1,2,1,1,1,0,1,1,1,3,1,3,3,3,3,1,1,1,0,4,0,1,1,4,"null","<div style=""font-size:75px;""><b>Correct</b></div>","null","","","","","","","","","","","","","","","","","","",""
"","html-keyboard-response",49,481815,"0.0-2.13-2.13",72,21,"f",1665676449354,750,"q","q","Only if I get the answer right","Nothing","A fixed time limit",4,"female","try to focus on the 3 circles at the same time and quicky scan to detect the normal VS odd pattern","change the color of the circles because my eyes got tired when seeing the same blue background ",1,1,2,2,1,2,0,3,2,1,3,1,1,2,0,0,0,1,0,0,0,1,3,1,0,0,2,0,2,1,2,2,0,1,0,1,1,0,0,1,2,1,1,1,0,1,1,1,3,1,3,3,3,3,1,1,1,0,4,0,1,1,4,"601.6000000014901","","w","","true","practice","13","up","down","1","w","1","0","1665676931629","","","","","","","",""
"","html-keyboard-response",50,482360,"0.0-2.14-0.14",72,21,"f",1665676449354,750,"q","q","Only if I get the answer right","Nothing","A fixed time limit",4,"female","try to focus on the 3 circles at the same time and quicky scan to detect the normal VS odd pattern","change the color of the circles because my eyes got tired when seeing the same blue background ",1,1,2,2,1,2,0,3,2,1,3,1,1,2,0,0,0,1,0,0,0,1,3,1,0,0,2,0,2,1,2,2,0,1,0,1,1,0,0,1,2,1,1,1,0,1,1,1,3,1,3,3,3,3,1,1,1,0,4,0,1,1,4,"542.2999999970198","<br><br><br><br><table><tr><td><img src=static/images/oddball_up.png></td><td><img src=static/images/oddball_down.png></td><td><img src=static/images/oddball_down.png></td></tr></table>","81","1","","","","","","","","","","","","","","","","","",""
"","html-keyboard-response",51,484873,"0.0-2.14-1.14",72,21,"f",1665676449354,750,"q","q","Only if I get the answer right","Nothing","A fixed time limit",4,"female","try to focus on the 3 circles at the same time and quicky scan to detect the normal VS odd pattern","change the color of the circles because my eyes got tired when seeing the same blue background ",1,1,2,2,1,2,0,3,2,1,3,1,1,2,0,0,0,1,0,0,0,1,3,1,0,0,2,0,2,1,2,2,0,1,0,1,1,0,0,1,2,1,1,1,0,1,1,1,3,1,3,3,3,3,1,1,1,0,4,0,1,1,4,"null","<div style=""font-size:75px;""><b>Correct</b></div>","null","","","","","","","","","","","","","","","","","","",""
"","html-keyboard-response",52,485878,"0.0-2.14-2.14",72,21,"f",1665676449354,750,"q","q","Only if I get the answer right","Nothing","A fixed time limit",4,"female","try to focus on the 3 circles at the same time and quicky scan to detect the normal VS odd pattern","change the color of the circles because my eyes got tired when seeing the same blue background ",1,1,2,2,1,2,0,3,2,1,3,1,1,2,0,0,0,1,0,0,0,1,3,1,0,0,2,0,2,1,2,2,0,1,0,1,1,0,0,1,2,1,1,1,0,1,1,1,3,1,3,3,3,3,1,1,1,0,4,0,1,1,4,"542.2999999970198","","q","","true","practice","14","down","up","0","q","1","0","1665676935690","","","","","","","",""
"","html-keyboard-response",53,486269,"0.0-2.15-0.15",72,21,"f",1665676449354,750,"q","q","Only if I get the answer right","Nothing","A fixed time limit",4,"female","try to focus on the 3 circles at the same time and quicky scan to detect the normal VS odd pattern","change the color of the circles because my eyes got tired when seeing the same blue background ",1,1,2,2,1,2,0,3,2,1,3,1,1,2,0,0,0,1,0,0,0,1,3,1,0,0,2,0,2,1,2,2,0,1,0,1,1,0,0,1,2,1,1,1,0,1,1,1,3,1,3,3,3,3,1,1,1,0,4,0,1,1,4,"390.3999999985099","<br><br><br><br><table><tr><td><img src=static/images/oddball_down.png></td><td><img src=static/images/oddball_up.png></td><td><img src=static/images/oddball_down.png></td></tr></table>","81","1","","","","","","","","","","","","","","","","","",""
"","html-keyboard-response",54,488780,"0.0-2.15-1.15",72,21,"f",1665676449354,750,"q","q","Only if I get the answer right","Nothing","A fixed time limit",4,"female","try to focus on the 3 circles at the same time and quicky scan to detect the normal VS odd pattern","change the color of the circles because my eyes got tired when seeing the same blue background ",1,1,2,2,1,2,0,3,2,1,3,1,1,2,0,0,0,1,0,0,0,1,3,1,0,0,2,0,2,1,2,2,0,1,0,1,1,0,0,1,2,1,1,1,0,1,1,1,3,1,3,3,3,3,1,1,1,0,4,0,1,1,4,"null","<div style=""font-size:75px;""><b>Incorrect</b></div><br><br><div font-size:50px;"">The middle shape was the odd one out, so you needed to press W!</div>","null","","","","","","","","","","","","","","","","","","",""
"","html-keyboard-response",55,489785,"0.0-2.15-2.15",72,21,"f",1665676449354,750,"q","q","Only if I get the answer right","Nothing","A fixed time limit",4,"female","try to focus on the 3 circles at the same time and quicky scan to detect the normal VS odd pattern","change the color of the circles because my eyes got tired when seeing the same blue background ",1,1,2,2,1,2,0,3,2,1,3,1,1,2,0,0,0,1,0,0,0,1,3,1,0,0,2,0,2,1,2,2,0,1,0,1,1,0,0,1,2,1,1,1,0,1,1,1,3,1,3,3,3,3,1,1,1,0,4,0,1,1,4,"390.3999999985099","","q","","true","practice","15","down","up","1","w","0","0","1665676939597","","","","","","","",""
"","html-keyboard-response",56,490525,"0.0-2.16-0.16",72,21,"f",1665676449354,750,"q","q","Only if I get the answer right","Nothing","A fixed time limit",4,"female","try to focus on the 3 circles at the same time and quicky scan to detect the normal VS odd pattern","change the color of the circles because my eyes got tired when seeing the same blue background ",1,1,2,2,1,2,0,3,2,1,3,1,1,2,0,0,0,1,0,0,0,1,3,1,0,0,2,0,2,1,2,2,0,1,0,1,1,0,0,1,2,1,1,1,0,1,1,1,3,1,3,3,3,3,1,1,1,0,4,0,1,1,4,"739.2000000029802","<br><br><br><br><table><tr><td><img src=static/images/oddball_up.png></td><td><img src=static/images/oddball_down.png></td><td><img src=static/images/oddball_down.png></td></tr></table>","81","1","","","","","","","","","","","","","","","","","",""
"","html-keyboard-response",57,493038,"0.0-2.16-1.16",72,21,"f",1665676449354,750,"q","q","Only if I get the answer right","Nothing","A fixed time limit",4,"female","try to focus on the 3 circles at the same time and quicky scan to detect the normal VS odd pattern","change the color of the circles because my eyes got tired when seeing the same blue background ",1,1,2,2,1,2,0,3,2,1,3,1,1,2,0,0,0,1,0,0,0,1,3,1,0,0,2,0,2,1,2,2,0,1,0,1,1,0,0,1,2,1,1,1,0,1,1,1,3,1,3,3,3,3,1,1,1,0,4,0,1,1,4,"null","<div style=""font-size:75px;""><b>Correct</b></div>","null","","","","","","","","","","","","","","","","","","",""
"","html-keyboard-response",58,494043,"0.0-2.16-2.16",72,21,"f",1665676449354,750,"q","q","Only if I get the answer right","Nothing","A fixed time limit",4,"female","try to focus on the 3 circles at the same time and quicky scan to detect the normal VS odd pattern","change the color of the circles because my eyes got tired when seeing the same blue background ",1,1,2,2,1,2,0,3,2,1,3,1,1,2,0,0,0,1,0,0,0,1,3,1,0,0,2,0,2,1,2,2,0,1,0,1,1,0,0,1,2,1,1,1,0,1,1,1,3,1,3,3,3,3,1,1,1,0,4,0,1,1,4,"739.2000000029802","","q","","true","practice","16","down","up","0","q","1","0","1665676943855","","","","","","","",""
"","html-keyboard-response",59,494573,"0.0-2.17-0.17",72,21,"f",1665676449354,750,"q","q","Only if I get the answer right","Nothing","A fixed time limit",4,"female","try to focus on the 3 circles at the same time and quicky scan to detect the normal VS odd pattern","change the color of the circles because my eyes got tired when seeing the same blue background ",1,1,2,2,1,2,0,3,2,1,3,1,1,2,0,0,0,1,0,0,0,1,3,1,0,0,2,0,2,1,2,2,0,1,0,1,1,0,0,1,2,1,1,1,0,1,1,1,3,1,3,3,3,3,1,1,1,0,4,0,1,1,4,"529.0999999940395","<br><br><br><br><table><tr><td><img src=static/images/oddball_up.png></td><td><img src=static/images/oddball_down.png></td><td><img src=static/images/oddball_down.png></td></tr></table>","81","1","","","","","","","","","","","","","","","","","",""
"","html-keyboard-response",60,497079,"0.0-2.17-1.17",72,21,"f",1665676449354,750,"q","q","Only if I get the answer right","Nothing","A fixed time limit",4,"female","try to focus on the 3 circles at the same time and quicky scan to detect the normal VS odd pattern","change the color of the circles because my eyes got tired when seeing the same blue background ",1,1,2,2,1,2,0,3,2,1,3,1,1,2,0,0,0,1,0,0,0,1,3,1,0,0,2,0,2,1,2,2,0,1,0,1,1,0,0,1,2,1,1,1,0,1,1,1,3,1,3,3,3,3,1,1,1,0,4,0,1,1,4,"null","<div style=""font-size:75px;""><b>Correct</b></div>","null","","","","","","","","","","","","","","","","","","",""
"","html-keyboard-response",61,498084,"0.0-2.17-2.17",72,21,"f",1665676449354,750,"q","q","Only if I get the answer right","Nothing","A fixed time limit",4,"female","try to focus on the 3 circles at the same time and quicky scan to detect the normal VS odd pattern","change the color of the circles because my eyes got tired when seeing the same blue background ",1,1,2,2,1,2,0,3,2,1,3,1,1,2,0,0,0,1,0,0,0,1,3,1,0,0,2,0,2,1,2,2,0,1,0,1,1,0,0,1,2,1,1,1,0,1,1,1,3,1,3,3,3,3,1,1,1,0,4,0,1,1,4,"529.0999999940395","","q","","true","practice","17","down","up","0","q","1","0","1665676947896","","","","","","","",""
"","html-keyboard-response",62,498917,"0.0-2.18-0.18",72,21,"f",1665676449354,750,"q","q","Only if I get the answer right","Nothing","A fixed time limit",4,"female","try to focus on the 3 circles at the same time and quicky scan to detect the normal VS odd pattern","change the color of the circles because my eyes got tired when seeing the same blue background ",1,1,2,2,1,2,0,3,2,1,3,1,1,2,0,0,0,1,0,0,0,1,3,1,0,0,2,0,2,1,2,2,0,1,0,1,1,0,0,1,2,1,1,1,0,1,1,1,3,1,3,3,3,3,1,1,1,0,4,0,1,1,4,"832.1999999955297","<br><br><br><br><table><tr><td><img src=static/images/oddball_up.png></td><td><img src=static/images/oddball_down.png></td><td><img src=static/images/oddball_down.png></td></tr></table>","81","1","","","","","","","","","","","","","","","","","",""
"","html-keyboard-response",63,501422,"0.0-2.18-1.18",72,21,"f",1665676449354,750,"q","q","Only if I get the answer right","Nothing","A fixed time limit",4,"female","try to focus on the 3 circles at the same time and quicky scan to detect the normal VS odd pattern","change the color of the circles because my eyes got tired when seeing the same blue background ",1,1,2,2,1,2,0,3,2,1,3,1,1,2,0,0,0,1,0,0,0,1,3,1,0,0,2,0,2,1,2,2,0,1,0,1,1,0,0,1,2,1,1,1,0,1,1,1,3,1,3,3,3,3,1,1,1,0,4,0,1,1,4,"null","<div style=""font-size:75px;""><b>Correct</b></div>","null","","","","","","","","","","","","","","","","","","",""
"","html-keyboard-response",64,502428,"0.0-2.18-2.18",72,21,"f",1665676449354,750,"q","q","Only if I get the answer right","Nothing","A fixed time limit",4,"female","try to focus on the 3 circles at the same time and quicky scan to detect the normal VS odd pattern","change the color of the circles because my eyes got tired when seeing the same blue background ",1,1,2,2,1,2,0,3,2,1,3,1,1,2,0,0,0,1,0,0,0,1,3,1,0,0,2,0,2,1,2,2,0,1,0,1,1,0,0,1,2,1,1,1,0,1,1,1,3,1,3,3,3,3,1,1,1,0,4,0,1,1,4,"832.1999999955297","","q","","true","practice","18","down","up","0","q","1","0","1665676952240","","","","","","","",""
"","html-keyboard-response",65,502876,"0.0-2.19-0.19",72,21,"f",1665676449354,750,"q","q","Only if I get the answer right","Nothing","A fixed time limit",4,"female","try to focus on the 3 circles at the same time and quicky scan to detect the normal VS odd pattern","change the color of the circles because my eyes got tired when seeing the same blue background ",1,1,2,2,1,2,0,3,2,1,3,1,1,2,0,0,0,1,0,0,0,1,3,1,0,0,2,0,2,1,2,2,0,1,0,1,1,0,0,1,2,1,1,1,0,1,1,1,3,1,3,3,3,3,1,1,1,0,4,0,1,1,4,"448.30000000447035","<br><br><br><br><table><tr><td><img src=static/images/oddball_up.png></td><td><img src=static/images/oddball_up.png></td><td><img src=static/images/oddball_down.png></td></tr></table>","69","1","","","","","","","","","","","","","","","","","",""
"","html-keyboard-response",66,505379,"0.0-2.19-1.19",72,21,"f",1665676449354,750,"q","q","Only if I get the answer right","Nothing","A fixed time limit",4,"female","try to focus on the 3 circles at the same time and quicky scan to detect the normal VS odd pattern","change the color of the circles because my eyes got tired when seeing the same blue background ",1,1,2,2,1,2,0,3,2,1,3,1,1,2,0,0,0,1,0,0,0,1,3,1,0,0,2,0,2,1,2,2,0,1,0,1,1,0,0,1,2,1,1,1,0,1,1,1,3,1,3,3,3,3,1,1,1,0,4,0,1,1,4,"null","<div style=""font-size:75px;""><b>Correct</b></div>","null","","","","","","","","","","","","","","","","","","",""
"","html-keyboard-response",67,506384,"0.0-2.19-2.19",72,21,"f",1665676449354,750,"q","q","Only if I get the answer right","Nothing","A fixed time limit",4,"female","try to focus on the 3 circles at the same time and quicky scan to detect the normal VS odd pattern","change the color of the circles because my eyes got tired when seeing the same blue background ",1,1,2,2,1,2,0,3,2,1,3,1,1,2,0,0,0,1,0,0,0,1,3,1,0,0,2,0,2,1,2,2,0,1,0,1,1,0,0,1,2,1,1,1,0,1,1,1,3,1,3,3,3,3,1,1,1,0,4,0,1,1,4,"448.30000000447035","","e","","true","practice","19","up","down","2","e","1","0","1665676956196","","","","","","","",""
"","image-keyboard-response",68,512557,"0.0-3.0-0.0",72,21,"f",1665676449354,750,"q","q","Only if I get the answer right","Nothing","A fixed time limit",4,"female","try to focus on the 3 circles at the same time and quicky scan to detect the normal VS odd pattern","change the color of the circles because my eyes got tired when seeing the same blue background ",1,1,2,2,1,2,0,3,2,1,3,1,1,2,0,0,0,1,0,0,0,1,3,1,0,0,2,0,2,1,2,2,0,1,0,1,1,0,0,1,2,1,1,1,0,1,1,1,3,1,3,3,3,3,1,1,1,0,4,0,1,1,4,"6172.39999999851","static/images/instructions/Slide8.png","39","","","","","","","","","","","","","","","","","","",""
"","image-keyboard-response",69,530077,"0.0-3.1-0.1",72,21,"f",1665676449354,750,"q","q","Only if I get the answer right","Nothing","A fixed time limit",4,"female","try to focus on the 3 circles at the same time and quicky scan to detect the normal VS odd pattern","change the color of the circles because my eyes got tired when seeing the same blue background ",1,1,2,2,1,2,0,3,2,1,3,1,1,2,0,0,0,1,0,0,0,1,3,1,0,0,2,0,2,1,2,2,0,1,0,1,1,0,0,1,2,1,1,1,0,1,1,1,3,1,3,3,3,3,1,1,1,0,4,0,1,1,4,"17519.39999999851","static/images/instructions/Slide9.png","39","","","","","","","","","","","","","","","","","","",""
"","image-keyboard-response",70,543085,"0.0-3.2-0.2",72,21,"f",1665676449354,750,"q","q","Only if I get the answer right","Nothing","A fixed time limit",4,"female","try to focus on the 3 circles at the same time and quicky scan to detect the normal VS odd pattern","change the color of the circles because my eyes got tired when seeing the same blue background ",1,1,2,2,1,2,0,3,2,1,3,1,1,2,0,0,0,1,0,0,0,1,3,1,0,0,2,0,2,1,2,2,0,1,0,1,1,0,0,1,2,1,1,1,0,1,1,1,3,1,3,3,3,3,1,1,1,0,4,0,1,1,4,"13007.19999999553","static/images/instructions/Slide10.png","39","","","","","","","","","","","","","","","","","","",""
"","image-keyboard-response",71,553370,"0.0-3.3-0.3",72,21,"f",1665676449354,750,"q","q","Only if I get the answer right","Nothing","A fixed time limit",4,"female","try to focus on the 3 circles at the same time and quicky scan to detect the normal VS odd pattern","change the color of the circles because my eyes got tired when seeing the same blue background ",1,1,2,2,1,2,0,3,2,1,3,1,1,2,0,0,0,1,0,0,0,1,3,1,0,0,2,0,2,1,2,2,0,1,0,1,1,0,0,1,2,1,1,1,0,1,1,1,3,1,3,3,3,3,1,1,1,0,4,0,1,1,4,"10287","static/images/instructions/Slide11.png","39","","","","","","","","","","","","","","","","","","",""
"","image-keyboard-response",72,561826,"0.0-3.4-0.4",72,21,"f",1665676449354,750,"q","q","Only if I get the answer right","Nothing","A fixed time limit",4,"female","try to focus on the 3 circles at the same time and quicky scan to detect the normal VS odd pattern","change the color of the circles because my eyes got tired when seeing the same blue background ",1,1,2,2,1,2,0,3,2,1,3,1,1,2,0,0,0,1,0,0,0,1,3,1,0,0,2,0,2,1,2,2,0,1,0,1,1,0,0,1,2,1,1,1,0,1,1,1,3,1,3,3,3,3,1,1,1,0,4,0,1,1,4,"8455.10000000149","static/images/instructions/Slide12.png","39","","","","","","","","","","","","","","","","","","",""
"","image-keyboard-response",73,568858,"0.0-3.5-0.5",72,21,"f",1665676449354,750,"q","q","Only if I get the answer right","Nothing","A fixed time limit",4,"female","try to focus on the 3 circles at the same time and quicky scan to detect the normal VS odd pattern","change the color of the circles because my eyes got tired when seeing the same blue background ",1,1,2,2,1,2,0,3,2,1,3,1,1,2,0,0,0,1,0,0,0,1,3,1,0,0,2,0,2,1,2,2,0,1,0,1,1,0,0,1,2,1,1,1,0,1,1,1,3,1,3,3,3,3,1,1,1,0,4,0,1,1,4,"7031.60000000149","static/images/instructions/Slide13.png","37","","","","","","","","","","","","","","","","","","",""
"","image-keyboard-response",74,569602,"0.0-3.6-0.6",72,21,"f",1665676449354,750,"q","q","Only if I get the answer right","Nothing","A fixed time limit",4,"female","try to focus on the 3 circles at the same time and quicky scan to detect the normal VS odd pattern","change the color of the circles because my eyes got tired when seeing the same blue background ",1,1,2,2,1,2,0,3,2,1,3,1,1,2,0,0,0,1,0,0,0,1,3,1,0,0,2,0,2,1,2,2,0,1,0,1,1,0,0,1,2,1,1,1,0,1,1,1,3,1,3,3,3,3,1,1,1,0,4,0,1,1,4,"743.2000000029802","static/images/instructions/Slide12.png","39","","","","","","","","","","","","","","","","","","",""
"","image-keyboard-response",75,577243,"0.0-3.7-0.7",72,21,"f",1665676449354,750,"q","q","Only if I get the answer right","Nothing","A fixed time limit",4,"female","try to focus on the 3 circles at the same time and quicky scan to detect the normal VS odd pattern","change the color of the circles because my eyes got tired when seeing the same blue background ",1,1,2,2,1,2,0,3,2,1,3,1,1,2,0,0,0,1,0,0,0,1,3,1,0,0,2,0,2,1,2,2,0,1,0,1,1,0,0,1,2,1,1,1,0,1,1,1,3,1,3,3,3,3,1,1,1,0,4,0,1,1,4,"7640.19999999553","static/images/instructions/Slide13.png","39","","","","","","","","","","","","","","","","","","",""
"","image-keyboard-response",76,588226,"0.0-3.8-0.8",72,21,"f",1665676449354,750,"q","q","Only if I get the answer right","Nothing","A fixed time limit",4,"female","try to focus on the 3 circles at the same time and quicky scan to detect the normal VS odd pattern","change the color of the circles because my eyes got tired when seeing the same blue background ",1,1,2,2,1,2,0,3,2,1,3,1,1,2,0,0,0,1,0,0,0,1,3,1,0,0,2,0,2,1,2,2,0,1,0,1,1,0,0,1,2,1,1,1,0,1,1,1,3,1,3,3,3,3,1,1,1,0,4,0,1,1,4,"10983","static/images/instructions/Slide14.png","39","","","","","","","","","","","","","","","","","","",""
"","image-keyboard-response",77,593698,"0.0-3.9-0.9",72,21,"f",1665676449354,750,"q","q","Only if I get the answer right","Nothing","A fixed time limit",4,"female","try to focus on the 3 circles at the same time and quicky scan to detect the normal VS odd pattern","change the color of the circles because my eyes got tired when seeing the same blue background ",1,1,2,2,1,2,0,3,2,1,3,1,1,2,0,0,0,1,0,0,0,1,3,1,0,0,2,0,2,1,2,2,0,1,0,1,1,0,0,1,2,1,1,1,0,1,1,1,3,1,3,3,3,3,1,1,1,0,4,0,1,1,4,"5471.30000000447","static/images/instructions/Slide15.png","39","","","","","","","","","","","","","","","","","","",""
"","image-keyboard-response",78,610082,"0.0-3.10-0.10",72,21,"f",1665676449354,750,"q","q","Only if I get the answer right","Nothing","A fixed time limit",4,"female","try to focus on the 3 circles at the same time and quicky scan to detect the normal VS odd pattern","change the color of the circles because my eyes got tired when seeing the same blue background ",1,1,2,2,1,2,0,3,2,1,3,1,1,2,0,0,0,1,0,0,0,1,3,1,0,0,2,0,2,1,2,2,0,1,0,1,1,0,0,1,2,1,1,1,0,1,1,1,3,1,3,3,3,3,1,1,1,0,4,0,1,1,4,"16383.69999999553","static/images/instructions/Slide16.png","39","","","","","","","","","","","","","","","","","","",""
"","image-keyboard-response",79,613723,"0.0-3.11-0.11",72,21,"f",1665676449354,750,"q","q","Only if I get the answer right","Nothing","A fixed time limit",4,"female","try to focus on the 3 circles at the same time and quicky scan to detect the normal VS odd pattern","change the color of the circles because my eyes got tired when seeing the same blue background ",1,1,2,2,1,2,0,3,2,1,3,1,1,2,0,0,0,1,0,0,0,1,3,1,0,0,2,0,2,1,2,2,0,1,0,1,1,0,0,1,2,1,1,1,0,1,1,1,3,1,3,3,3,3,1,1,1,0,4,0,1,1,4,"3639.10000000149","static/images/instructions/Slide17.png","39","","","","","","","","","","","","","","","","","","",""
"","survey-multi-choice",80,692461,"0.0-4.0",72,21,"f",1665676449354,750,"q","q","Only if I get the answer right","Nothing","A fixed time limit",4,"female","try to focus on the 3 circles at the same time and quicky scan to detect the normal VS odd pattern","change the color of the circles because my eyes got tired when seeing the same blue background ",1,1,2,2,1,2,0,3,2,1,3,1,1,2,0,0,0,1,0,0,0,1,3,1,0,0,2,0,2,1,2,2,0,1,0,1,1,0,0,1,2,1,1,1,0,1,1,1,3,1,3,3,3,3,1,1,1,0,4,0,1,1,4,"78735","","","","","","","","","","","","","","{""q1"":""q"",""q2"":""q"",""q3"":""Only if I get the answer right"",""q4"":""Nothing"",""q5"":""A fixed time limit""}","[1,4,3,0,2]","","","","","",""
"","image-keyboard-response",81,712676,"0.0-5.0-0.0",72,21,"f",1665676449354,750,"q","q","Only if I get the answer right","Nothing","A fixed time limit",4,"female","try to focus on the 3 circles at the same time and quicky scan to detect the normal VS odd pattern","change the color of the circles because my eyes got tired when seeing the same blue background ",1,1,2,2,1,2,0,3,2,1,3,1,1,2,0,0,0,1,0,0,0,1,3,1,0,0,2,0,2,1,2,2,0,1,0,1,1,0,0,1,2,1,1,1,0,1,1,1,3,1,3,3,3,3,1,1,1,0,4,0,1,1,4,"20214","static/images/instructions/Slide18.png","39","","","","","","","","","","","","","","","","","","",""
"","html-keyboard-response",82,713688,"0.0-6.0-0.0-0.0",72,21,"f",1665676449354,750,"q","q","Only if I get the answer right","Nothing","A fixed time limit",4,"female","try to focus on the 3 circles at the same time and quicky scan to detect the normal VS odd pattern","change the color of the circles because my eyes got tired when seeing the same blue background ",1,1,2,2,1,2,0,3,2,1,3,1,1,2,0,0,0,1,0,0,0,1,3,1,0,0,2,0,2,1,2,2,0,1,0,1,1,0,0,1,2,1,1,1,0,1,1,1,3,1,3,3,3,3,1,1,1,0,4,0,1,1,4,"null","<div style=""font-size:75px;"">3</div>","null","","","","","","","","","","","","","","","","","","",""
"","html-keyboard-response",83,714702,"0.0-6.0-0.1-0.1",72,21,"f",1665676449354,750,"q","q","Only if I get the answer right","Nothing","A fixed time limit",4,"female","try to focus on the 3 circles at the same time and quicky scan to detect the normal VS odd pattern","change the color of the circles because my eyes got tired when seeing the same blue background ",1,1,2,2,1,2,0,3,2,1,3,1,1,2,0,0,0,1,0,0,0,1,3,1,0,0,2,0,2,1,2,2,0,1,0,1,1,0,0,1,2,1,1,1,0,1,1,1,3,1,3,3,3,3,1,1,1,0,4,0,1,1,4,"null","<div style=""font-size:75px;"">2</div>","null","","","","","","","","","","","","","","","","","","",""
"","html-keyboard-response",84,715708,"0.0-6.0-0.2-0.2",72,21,"f",1665676449354,750,"q","q","Only if I get the answer right","Nothing","A fixed time limit",4,"female","try to focus on the 3 circles at the same time and quicky scan to detect the normal VS odd pattern","change the color of the circles because my eyes got tired when seeing the same blue background ",1,1,2,2,1,2,0,3,2,1,3,1,1,2,0,0,0,1,0,0,0,1,3,1,0,0,2,0,2,1,2,2,0,1,0,1,1,0,0,1,2,1,1,1,0,1,1,1,3,1,3,3,3,3,1,1,1,0,4,0,1,1,4,"null","<div style=""font-size:75px;"">1</div>","null","","","","","","","","","","","","","","","","","","",""
"","html-keyboard-response",85,716052,"0.0-6.0-1.0-0.0",72,21,"f",1665676449354,750,"q","q","Only if I get the answer right","Nothing","A fixed time limit",4,"female","try to focus on the 3 circles at the same time and quicky scan to detect the normal VS odd pattern","change the color of the circles because my eyes got tired when seeing the same blue background ",1,1,2,2,1,2,0,3,2,1,3,1,1,2,0,0,0,1,0,0,0,1,3,1,0,0,2,0,2,1,2,2,0,1,0,1,1,0,0,1,2,1,1,1,0,1,1,1,3,1,3,3,3,3,1,1,1,0,4,0,1,1,4,"340.3999999985099","<br><br><br><br><table><tr><td><img src=static/images/oddball_down.png></td><td><img src=static/images/oddball_down.png></td><td><img src=static/images/oddball_up.png></td></tr></table>","69","1","","","","","","","","","","","","","","","","","",""
"","html-keyboard-response",86,716063.845961678,"0.0-6.0-1.0-1.0",72,21,"f",1665676449354,750,"q","q","Only if I get the answer right","Nothing","A fixed time limit",4,"female","try to focus on the 3 circles at the same time and quicky scan to detect the normal VS odd pattern","change the color of the circles because my eyes got tired when seeing the same blue background ",1,1,2,2,1,2,0,3,2,1,3,1,1,2,0,0,0,1,0,0,0,1,3,1,0,0,2,0,2,1,2,2,0,1,0,1,1,0,0,1,2,1,1,1,0,1,1,1,3,1,3,3,3,3,1,1,1,0,4,0,1,1,4,"248.245961676947","","e","","true","0","0","down","up","2","e","1","0","1665677165875.85","","","true","60","0","0","0.2","null"
"","html-keyboard-response",87,716636,"0.0-6.0-1.1-0.1",72,21,"f",1665676449354,750,"q","q","Only if I get the answer right","Nothing","A fixed time limit",4,"female","try to focus on the 3 circles at the same time and quicky scan to detect the normal VS odd pattern","change the color of the circles because my eyes got tired when seeing the same blue background ",1,1,2,2,1,2,0,3,2,1,3,1,1,2,0,0,0,1,0,0,0,1,3,1,0,0,2,0,2,1,2,2,0,1,0,1,1,0,0,1,2,1,1,1,0,1,1,1,3,1,3,3,3,3,1,1,1,0,4,0,1,1,4,"478.3999999985099","<br><br><br><br><table><tr><td><img src=static/images/oddball_up.png></td><td><img src=static/images/oddball_up.png></td><td><img src=static/images/oddball_down.png></td></tr></table>","69","1","","","","","","","","","","","","","","","","","",""
"","html-keyboard-response",88,716616.540882654,"0.0-6.0-1.1-1.1",72,21,"f",1665676449354,750,"q","q","Only if I get the answer right","Nothing","A fixed time limit",4,"female","try to focus on the 3 circles at the same time and quicky scan to detect the normal VS odd pattern","change the color of the circles because my eyes got tired when seeing the same blue background ",1,1,2,2,1,2,0,3,2,1,3,1,1,2,0,0,0,1,0,0,0,1,3,1,0,0,2,0,2,1,2,2,0,1,0,1,1,0,0,1,2,1,1,1,0,1,1,1,3,1,3,3,3,3,1,1,1,0,4,0,1,1,4,"354.940882652838","","e","","true","0","1","up","down","2","e","1","0","1665677166428.54","","","true","60","1","0.0166666666666667","0.2","false"
"","html-keyboard-response",89,717244,"0.0-6.0-1.2-0.2",72,21,"f",1665676449354,750,"q","q","Only if I get the answer right","Nothing","A fixed time limit",4,"female","try to focus on the 3 circles at the same time and quicky scan to detect the normal VS odd pattern","change the color of the circles because my eyes got tired when seeing the same blue background ",1,1,2,2,1,2,0,3,2,1,3,1,1,2,0,0,0,1,0,0,0,1,3,1,0,0,2,0,2,1,2,2,0,1,0,1,1,0,0,1,2,1,1,1,0,1,1,1,3,1,3,3,3,3,1,1,1,0,4,0,1,1,4,"503.1000000014901","<br><br><br><br><table><tr><td><img src=static/images/oddball_up.png></td><td><img src=static/images/oddball_down.png></td><td><img src=static/images/oddball_down.png></td></tr></table>","81","1","","","","","","","","","","","","","","","","","",""
"","html-keyboard-response",90,717386.65288755,"0.0-6.0-1.2-1.2",72,21,"f",1665676449354,750,"q","q","Only if I get the answer right","Nothing","A fixed time limit",4,"female","try to focus on the 3 circles at the same time and quicky scan to detect the normal VS odd pattern","change the color of the circles because my eyes got tired when seeing the same blue background ",1,1,2,2,1,2,0,3,2,1,3,1,1,2,0,0,0,1,0,0,0,1,3,1,0,0,2,0,2,1,2,2,0,1,0,1,1,0,0,1,2,1,1,1,0,1,1,1,3,1,3,3,3,3,1,1,1,0,4,0,1,1,4,"541.752887551145","","q","","true","0","2","down","up","0","q","1","0","1665677167198.65","","","true","60","2","0.0333333333333333","0.2","false"
"","html-keyboard-response",91,717796,"0.0-6.0-1.3-0.3",72,21,"f",1665676449354,750,"q","q","Only if I get the answer right","Nothing","A fixed time limit",4,"female","try to focus on the 3 circles at the same time and quicky scan to detect the normal VS odd pattern","change the color of the circles because my eyes got tired when seeing the same blue background ",1,1,2,2,1,2,0,3,2,1,3,1,1,2,0,0,0,1,0,0,0,1,3,1,0,0,2,0,2,1,2,2,0,1,0,1,1,0,0,1,2,1,1,1,0,1,1,1,3,1,3,3,3,3,1,1,1,0,4,0,1,1,4,"447","<br><br><br><br><table><tr><td><img src=static/images/oddball_down.png></td><td><img src=static/images/oddball_down.png></td><td><img src=static/images/oddball_up.png></td></tr></table>","69","1","","","","","","","","","","","","","","","","","",""
"","html-keyboard-response",92,717929.686059573,"0.0-6.0-1.3-1.3",72,21,"f",1665676449354,750,"q","q","Only if I get the answer right","Nothing","A fixed time limit",4,"female","try to focus on the 3 circles at the same time and quicky scan to detect the normal VS odd pattern","change the color of the circles because my eyes got tired when seeing the same blue background ",1,1,2,2,1,2,0,3,2,1,3,1,1,2,0,0,0,1,0,0,0,1,3,1,0,0,2,0,2,1,2,2,0,1,0,1,1,0,0,1,2,1,1,1,0,1,1,1,3,1,3,3,3,3,1,1,1,0,4,0,1,1,4,"464.686","","e","","true","0","3","down","up","2","e","1","0","1665677167741.69","","","true","60","3","0.05","0.2","false"
"","html-keyboard-response",93,718316,"0.0-6.0-1.4-0.4",72,21,"f",1665676449354,750,"q","q","Only if I get the answer right","Nothing","A fixed time limit",4,"female","try to focus on the 3 circles at the same time and quicky scan to detect the normal VS odd pattern","change the color of the circles because my eyes got tired when seeing the same blue background ",1,1,2,2,1,2,0,3,2,1,3,1,1,2,0,0,0,1,0,0,0,1,3,1,0,0,2,0,2,1,2,2,0,1,0,1,1,0,0,1,2,1,1,1,0,1,1,1,3,1,3,3,3,3,1,1,1,0,4,0,1,1,4,"402.59999999403954","<br><br><br><br><table><tr><td><img src=static/images/oddball_up.png></td><td><img src=static/images/oddball_up.png></td><td><img src=static/images/oddball_down.png></td></tr></table>","69","1","","","","","","","","","","","","","","","","","",""
"","html-keyboard-response",94,718345.67328237,"0.0-6.0-1.4-1.4",72,21,"f",1665676449354,750,"q","q","Only if I get the answer right","Nothing","A fixed time limit",4,"female","try to focus on the 3 circles at the same time and quicky scan to detect the normal VS odd pattern","change the color of the circles because my eyes got tired when seeing the same blue background ",1,1,2,2,1,2,0,3,2,1,3,1,1,2,0,0,0,1,0,0,0,1,3,1,0,0,2,0,2,1,2,2,0,1,0,1,1,0,0,1,2,1,1,1,0,1,1,1,3,1,3,3,3,3,1,1,1,0,4,0,1,1,4,"321.273282363885","","e","","true","0","4","up","down","2","e","1","0","1665677168157.67","","","true","60","4","0.0666666666666667","0.2","false"
"","html-keyboard-response",95,718996,"0.0-6.0-1.5-0.5",72,21,"f",1665676449354,750,"q","q","Only if I get the answer right","Nothing","A fixed time limit",4,"female","try to focus on the 3 circles at the same time and quicky scan to detect the normal VS odd pattern","change the color of the circles because my eyes got tired when seeing the same blue background ",1,1,2,2,1,2,0,3,2,1,3,1,1,2,0,0,0,1,0,0,0,1,3,1,0,0,2,0,2,1,2,2,0,1,0,1,1,0,0,1,2,1,1,1,0,1,1,1,3,1,3,3,3,3,1,1,1,0,4,0,1,1,4,"567.6000000014901","<br><br><br><br><table><tr><td><img src=static/images/oddball_down.png></td><td><img src=static/images/oddball_up.png></td><td><img src=static/images/oddball_down.png></td></tr></table>","87","1","","","","","","","","","","","","","","","","","",""
"","html-keyboard-response",96,719170.83195459,"0.0-6.0-1.5-1.5",72,21,"f",1665676449354,750,"q","q","Only if I get the answer right","Nothing","A fixed time limit",4,"female","try to focus on the 3 circles at the same time and quicky scan to detect the normal VS odd pattern","change the color of the circles because my eyes got tired when seeing the same blue background ",1,1,2,2,1,2,0,3,2,1,3,1,1,2,0,0,0,1,0,0,0,1,3,1,0,0,2,0,2,1,2,2,0,1,0,1,1,0,0,1,2,1,1,1,0,1,1,1,3,1,3,3,3,3,1,1,1,0,4,0,1,1,4,"638.431954591227","","w","","true","0","5","down","up","1","w","1","0","1665677168982.83","","","true","60","5","0.0833333333333333","0.2","false"
"","html-keyboard-response",97,719556,"0.0-6.0-1.6-0.6",72,21,"f",1665676449354,750,"q","q","Only if I get the answer right","Nothing","A fixed time limit",4,"female","try to focus on the 3 circles at the same time and quicky scan to detect the normal VS odd pattern","change the color of the circles because my eyes got tired when seeing the same blue background ",1,1,2,2,1,2,0,3,2,1,3,1,1,2,0,0,0,1,0,0,0,1,3,1,0,0,2,0,2,1,2,2,0,1,0,1,1,0,0,1,2,1,1,1,0,1,1,1,3,1,3,3,3,3,1,1,1,0,4,0,1,1,4,"455.09999999403954","<br><br><br><br><table><tr><td><img src=static/images/oddball_down.png></td><td><img src=static/images/oddball_down.png></td><td><img src=static/images/oddball_up.png></td></tr></table>","69","1","","","","","","","","","","","","","","","","","",""
"","html-keyboard-response",98,719750.897451517,"0.0-6.0-1.6-1.6",72,21,"f",1665676449354,750,"q","q","Only if I get the answer right","Nothing","A fixed time limit",4,"female","try to focus on the 3 circles at the same time and quicky scan to detect the normal VS odd pattern","change the color of the circles because my eyes got tired when seeing the same blue background ",1,1,2,2,1,2,0,3,2,1,3,1,1,2,0,0,0,1,0,0,0,1,3,1,0,0,2,0,2,1,2,2,0,1,0,1,1,0,0,1,2,1,1,1,0,1,1,1,3,1,3,3,3,3,1,1,1,0,4,0,1,1,4,"542.99745151095","","e","","true","0","6","down","up","2","e","1","0","1665677169562.9","","","true","60","6","0.1","0.2","false"
"","html-keyboard-response",99,720220,"0.0-6.0-1.7-0.7",72,21,"f",1665676449354,750,"q","q","Only if I get the answer right","Nothing","A fixed time limit",4,"female","try to focus on the 3 circles at the same time and quicky scan to detect the normal VS odd pattern","change the color of the circles because my eyes got tired when seeing the same blue background ",1,1,2,2,1,2,0,3,2,1,3,1,1,2,0,0,0,1,0,0,0,1,3,1,0,0,2,0,2,1,2,2,0,1,0,1,1,0,0,1,2,1,1,1,0,1,1,1,3,1,3,3,3,3,1,1,1,0,4,0,1,1,4,"556.1999999955297","<br><br><br><br><table><tr><td><img src=static/images/oddball_down.png></td><td><img src=static/images/oddball_up.png></td><td><img src=static/images/oddball_up.png></td></tr></table>","81","1","","","","","","","","","","","","","","","","","",""
"","html-keyboard-response",100,720143.395907407,"0.0-6.0-1.7-1.7",72,21,"f",1665676449354,750,"q","q","Only if I get the answer right","Nothing","A fixed time limit",4,"female","try to focus on the 3 circles at the same time and quicky scan to detect the normal VS odd pattern","change the color of the circles because my eyes got tired when seeing the same blue background ",1,1,2,2,1,2,0,3,2,1,3,1,1,2,0,0,0,1,0,0,0,1,3,1,0,0,2,0,2,1,2,2,0,1,0,1,1,0,0,1,2,1,1,1,0,1,1,1,3,1,3,3,3,3,1,1,1,0,4,0,1,1,4,"369.595907402761","","q","","true","0","7","up","down","0","q","1","0","1665677169955.4","","","true","60","7","0.116666666666667","0.2","false"
"","html-keyboard-response",101,720796,"0.0-6.0-1.8-0.8",72,21,"f",1665676449354,750,"q","q","Only if I get the answer right","Nothing","A fixed time limit",4,"female","try to focus on the 3 circles at the same time and quicky scan to detect the normal VS odd pattern","change the color of the circles because my eyes got tired when seeing the same blue background ",1,1,2,2,1,2,0,3,2,1,3,1,1,2,0,0,0,1,0,0,0,1,3,1,0,0,2,0,2,1,2,2,0,1,0,1,1,0,0,1,2,1,1,1,0,1,1,1,3,1,3,3,3,3,1,1,1,0,4,0,1,1,4,"464.5","<br><br><br><br><table><tr><td><img src=static/images/oddball_down.png></td><td><img src=static/images/oddball_down.png></td><td><img src=static/images/oddball_up.png></td></tr></table>","69","1","","","","","","","","","","","","","","","","","",""
"","html-keyboard-response",102,720754.077546373,"0.0-6.0-1.8-1.8",72,21,"f",1665676449354,750,"q","q","Only if I get the answer right","Nothing","A fixed time limit",4,"female","try to focus on the 3 circles at the same time and quicky scan to detect the normal VS odd pattern","change the color of the circles because my eyes got tired when seeing the same blue background ",1,1,2,2,1,2,0,3,2,1,3,1,1,2,0,0,0,1,0,0,0,1,3,1,0,0,2,0,2,1,2,2,0,1,0,1,1,0,0,1,2,1,1,1,0,1,1,1,3,1,3,3,3,3,1,1,1,0,4,0,1,1,4,"320.57755","","e","","true","0","8","down","up","2","e","1","0","1665677170566.08","","","true","60","8","0.133333333333333","0.2","false"
"","html-keyboard-response",103,721316,"0.0-6.0-1.9-0.9",72,21,"f",1665676449354,750,"q","q","Only if I get the answer right","Nothing","A fixed time limit",4,"female","try to focus on the 3 circles at the same time and quicky scan to detect the normal VS odd pattern","change the color of the circles because my eyes got tired when seeing the same blue background ",1,1,2,2,1,2,0,3,2,1,3,1,1,2,0,0,0,1,0,0,0,1,3,1,0,0,2,0,2,1,2,2,0,1,0,1,1,0,0,1,2,1,1,1,0,1,1,1,3,1,3,3,3,3,1,1,1,0,4,0,1,1,4,"417.3999999985099","<br><br><br><br><table><tr><td><img src=static/images/oddball_up.png></td><td><img src=static/images/oddball_down.png></td><td><img src=static/images/oddball_down.png></td></tr></table>","81","1","","","","","","","","","","","","","","","","","",""
"","html-keyboard-response",104,721440.910228774,"0.0-6.0-1.9-1.9",72,21,"f",1665676449354,750,"q","q","Only if I get the answer right","Nothing","A fixed time limit",4,"female","try to focus on the 3 circles at the same time and quicky scan to detect the normal VS odd pattern","change the color of the circles because my eyes got tired when seeing the same blue background ",1,1,2,2,1,2,0,3,2,1,3,1,1,2,0,0,0,1,0,0,0,1,3,1,0,0,2,0,2,1,2,2,0,1,0,1,1,0,0,1,2,1,1,1,0,1,1,1,3,1,3,3,3,3,1,1,1,0,4,0,1,1,4,"428.310228772747","","q","","true","0","9","down","up","0","q","1","0","1665677171252.91","","","true","60","9","0.15","0.2","false"
"","html-keyboard-response",105,721884,"0.0-6.0-1.10-0.10",72,21,"f",1665676449354,750,"q","q","Only if I get the answer right","Nothing","A fixed time limit",4,"female","try to focus on the 3 circles at the same time and quicky scan to detect the normal VS odd pattern","change the color of the circles because my eyes got tired when seeing the same blue background ",1,1,2,2,1,2,0,3,2,1,3,1,1,2,0,0,0,1,0,0,0,1,3,1,0,0,2,0,2,1,2,2,0,1,0,1,1,0,0,1,2,1,1,1,0,1,1,1,3,1,3,3,3,3,1,1,1,0,4,0,1,1,4,"452.79999999701977","<br><br><br><br><table><tr><td><img src=static/images/oddball_up.png></td><td><img src=static/images/oddball_up.png></td><td><img src=static/images/oddball_down.png></td></tr></table>","69","1","","","","","","","","","","","","","","","","","",""
"","html-keyboard-response",106,722031.109461935,"0.0-6.0-1.10-1.10",72,21,"f",1665676449354,750,"q","q","Only if I get the answer right","Nothing","A fixed time limit",4,"female","try to focus on the 3 circles at the same time and quicky scan to detect the normal VS odd pattern","change the color of the circles because my eyes got tired when seeing the same blue background ",1,1,2,2,1,2,0,3,2,1,3,1,1,2,0,0,0,1,0,0,0,1,3,1,0,0,2,0,2,1,2,2,0,1,0,1,1,0,0,1,2,1,1,1,0,1,1,1,3,1,3,3,3,3,1,1,1,0,4,0,1,1,4,"485.909461931813","","e","","true","0","10","up","down","2","e","1","0","1665677171843.11","","","true","60","10","0.166666666666667","0.2","false"
"","html-keyboard-response",107,722420,"0.0-6.0-1.11-0.11",72,21,"f",1665676449354,750,"q","q","Only if I get the answer right","Nothing","A fixed time limit",4,"female","try to focus on the 3 circles at the same time and quicky scan to detect the normal VS odd pattern","change the color of the circles because my eyes got tired when seeing the same blue background ",1,1,2,2,1,2,0,3,2,1,3,1,1,2,0,0,0,1,0,0,0,1,3,1,0,0,2,0,2,1,2,2,0,1,0,1,1,0,0,1,2,1,1,1,0,1,1,1,3,1,3,3,3,3,1,1,1,0,4,0,1,1,4,"420.8999999985099","<br><br><br><br><table><tr><td><img src=static/images/oddball_up.png></td><td><img src=static/images/oddball_down.png></td><td><img src=static/images/oddball_down.png></td></tr></table>","87","1","","","","","","","","","","","","","","","","","",""
"","html-keyboard-response",108,722557.289644211,"0.0-6.0-1.11-1.11",72,21,"f",1665676449354,750,"q","q","Only if I get the answer right","Nothing","A fixed time limit",4,"female","try to focus on the 3 circles at the same time and quicky scan to detect the normal VS odd pattern","change the color of the circles because my eyes got tired when seeing the same blue background ",1,1,2,2,1,2,0,3,2,1,3,1,1,2,0,0,0,1,0,0,0,1,3,1,0,0,2,0,2,1,2,2,0,1,0,1,1,0,0,1,2,1,1,1,0,1,1,1,3,1,3,3,3,3,1,1,1,0,4,0,1,1,4,"454.189644209545","","w","","true","0","11","down","up","0","q","0","0","1665677172369.29","","","true","60","11","0.183333333333333","0.2","false"
"","html-keyboard-response",109,723100,"0.0-6.0-1.12-0.12",72,21,"f",1665676449354,750,"q","q","Only if I get the answer right","Nothing","A fixed time limit",4,"female","try to focus on the 3 circles at the same time and quicky scan to detect the normal VS odd pattern","change the color of the circles because my eyes got tired when seeing the same blue background ",1,1,2,2,1,2,0,3,2,1,3,1,1,2,0,0,0,1,0,0,0,1,3,1,0,0,2,0,2,1,2,2,0,1,0,1,1,0,0,1,2,1,1,1,0,1,1,1,3,1,3,3,3,3,1,1,1,0,4,0,1,1,4,"575.1999999955297","<br><br><br><br><table><tr><td><img src=static/images/oddball_up.png></td><td><img src=static/images/oddball_up.png></td><td><img src=static/images/oddball_down.png></td></tr></table>","87","1","","","","","","","","","","","","","","","","","",""
"","html-keyboard-response",110,723229.764147946,"0.0-6.0-1.12-1.12",72,21,"f",1665676449354,750,"q","q","Only if I get the answer right","Nothing","A fixed time limit",4,"female","try to focus on the 3 circles at the same time and quicky scan to detect the normal VS odd pattern","change the color of the circles because my eyes got tired when seeing the same blue background ",1,1,2,2,1,2,0,3,2,1,3,1,1,2,0,0,0,1,0,0,0,1,3,1,0,0,2,0,2,1,2,2,0,1,0,1,1,0,0,1,2,1,1,1,0,1,1,1,3,1,3,3,3,3,1,1,1,0,4,0,1,1,4,"601.964147941515","","w","","true","0","12","up","down","2","e","0","0","1665677173041.76","","","true","60","12","0.183333333333333","0.2","false"
"","html-keyboard-response",111,723892,"0.0-6.0-1.13-0.13",72,21,"f",1665676449354,750,"q","q","Only if I get the answer right","Nothing","A fixed time limit",4,"female","try to focus on the 3 circles at the same time and quicky scan to detect the normal VS odd pattern","change the color of the circles because my eyes got tired when seeing the same blue background ",1,1,2,2,1,2,0,3,2,1,3,1,1,2,0,0,0,1,0,0,0,1,3,1,0,0,2,0,2,1,2,2,0,1,0,1,1,0,0,1,2,1,1,1,0,1,1,1,3,1,3,3,3,3,1,1,1,0,4,0,1,1,4,"688.1000000014901","<br><br><br><br><table><tr><td><img src=static/images/oddball_down.png></td><td><img src=static/images/oddball_down.png></td><td><img src=static/images/oddball_up.png></td></tr></table>","81","1","","","","","","","","","","","","","","","","","",""
"","html-keyboard-response",112,724030.997814092,"0.0-6.0-1.13-1.13",72,21,"f",1665676449354,750,"q","q","Only if I get the answer right","Nothing","A fixed time limit",4,"female","try to focus on the 3 circles at the same time and quicky scan to detect the normal VS odd pattern","change the color of the circles because my eyes got tired when seeing the same blue background ",1,1,2,2,1,2,0,3,2,1,3,1,1,2,0,0,0,1,0,0,0,1,3,1,0,0,2,0,2,1,2,2,0,1,0,1,1,0,0,1,2,1,1,1,0,1,1,1,3,1,3,3,3,3,1,1,1,0,4,0,1,1,4,"716.097814093058","","q","","true","0","13","down","up","2","e","0","0","1665677173843","","","true","60","13","0.183333333333333","0.2","false"
"","html-keyboard-response",113,724628,"0.0-6.0-1.14-0.14",72,21,"f",1665676449354,750,"q","q","Only if I get the answer right","Nothing","A fixed time limit",4,"female","try to focus on the 3 circles at the same time and quicky scan to detect the normal VS odd pattern","change the color of the circles because my eyes got tired when seeing the same blue background ",1,1,2,2,1,2,0,3,2,1,3,1,1,2,0,0,0,1,0,0,0,1,3,1,0,0,2,0,2,1,2,2,0,1,0,1,1,0,0,1,2,1,1,1,0,1,1,1,3,1,3,3,3,3,1,1,1,0,4,0,1,1,4,"623.7000000029802","<br><br><br><br><table><tr><td><img src=static/images/oddball_up.png></td><td><img src=static/images/oddball_up.png></td><td><img src=static/images/oddball_down.png></td></tr></table>","69","1","","","","","","","","","","","","","","","","","",""
"","html-keyboard-response",114,724826.391414781,"0.0-6.0-1.14-1.14",72,21,"f",1665676449354,750,"q","q","Only if I get the answer right","Nothing","A fixed time limit",4,"female","try to focus on the 3 circles at the same time and quicky scan to detect the normal VS odd pattern","change the color of the circles because my eyes got tired when seeing the same blue background ",1,1,2,2,1,2,0,3,2,1,3,1,1,2,0,0,0,1,0,0,0,1,3,1,0,0,2,0,2,1,2,2,0,1,0,1,1,0,0,1,2,1,1,1,0,1,1,1,3,1,3,3,3,3,1,1,1,0,4,0,1,1,4,"717.09141478435","","e","","true","0","14","up","down","2","e","1","0","1665677174638.39","","","true","60","14","0.183333333333333","0.2","false"
"","html-keyboard-response",115,725332,"0.0-6.0-1.15-0.15",72,21,"f",1665676449354,750,"q","q","Only if I get the answer right","Nothing","A fixed time limit",4,"female","try to focus on the 3 circles at the same time and quicky scan to detect the normal VS odd pattern","change the color of the circles because my eyes got tired when seeing the same blue background ",1,1,2,2,1,2,0,3,2,1,3,1,1,2,0,0,0,1,0,0,0,1,3,1,0,0,2,0,2,1,2,2,0,1,0,1,1,0,0,1,2,1,1,1,0,1,1,1,3,1,3,3,3,3,1,1,1,0,4,0,1,1,4,"598.3999999985099","<br><br><br><br><table><tr><td><img src=static/images/oddball_up.png></td><td><img src=static/images/oddball_down.png></td><td><img src=static/images/oddball_down.png></td></tr></table>","81","1","","","","","","","","","","","","","","","","","",""
"","html-keyboard-response",116,725425.225936231,"0.0-6.0-1.15-1.15",72,21,"f",1665676449354,750,"q","q","Only if I get the answer right","Nothing","A fixed time limit",4,"female","try to focus on the 3 circles at the same time and quicky scan to detect the normal VS odd pattern","change the color of the circles because my eyes got tired when seeing the same blue background ",1,1,2,2,1,2,0,3,2,1,3,1,1,2,0,0,0,1,0,0,0,1,3,1,0,0,2,0,2,1,2,2,0,1,0,1,1,0,0,1,2,1,1,1,0,1,1,1,3,1,3,3,3,3,1,1,1,0,4,0,1,1,4,"583.625936229378","","q","","true","0","15","down","up","0","q","1","0","1665677175237.23","","","true","60","15","0.2","0.2","false"
"","html-keyboard-response",117,725940,"0.0-6.0-1.16-0.16",72,21,"f",1665676449354,750,"q","q","Only if I get the answer right","Nothing","A fixed time limit",4,"female","try to focus on the 3 circles at the same time and quicky scan to detect the normal VS odd pattern","change the color of the circles because my eyes got tired when seeing the same blue background ",1,1,2,2,1,2,0,3,2,1,3,1,1,2,0,0,0,1,0,0,0,1,3,1,0,0,2,0,2,1,2,2,0,1,0,1,1,0,0,1,2,1,1,1,0,1,1,1,3,1,3,3,3,3,1,1,1,0,4,0,1,1,4,"499.3999999985099","<br><br><br><br><table><tr><td><img src=static/images/oddball_up.png></td><td><img src=static/images/oddball_down.png></td><td><img src=static/images/oddball_down.png></td></tr></table>","81","1","","","","","","","","","","","","","","","","","",""
"","html-keyboard-response",118,726089.589688853,"0.0-6.0-1.16-1.16",72,21,"f",1665676449354,750,"q","q","Only if I get the answer right","Nothing","A fixed time limit",4,"female","try to focus on the 3 circles at the same time and quicky scan to detect the normal VS odd pattern","change the color of the circles because my eyes got tired when seeing the same blue background ",1,1,2,2,1,2,0,3,2,1,3,1,1,2,0,0,0,1,0,0,0,1,3,1,0,0,2,0,2,1,2,2,0,1,0,1,1,0,0,1,2,1,1,1,0,1,1,1,3,1,3,3,3,3,1,1,1,0,4,0,1,1,4,"547.989688851539","","q","","true","0","16","down","up","0","q","1","0","1665677175901.59","","","true","60","16","0.216666666666667","0.2","false"
"","html-keyboard-response",119,726732,"0.0-6.0-1.17-0.17",72,21,"f",1665676449354,750,"q","q","Only if I get the answer right","Nothing","A fixed time limit",4,"female","try to focus on the 3 circles at the same time and quicky scan to detect the normal VS odd pattern","change the color of the circles because my eyes got tired when seeing the same blue background ",1,1,2,2,1,2,0,3,2,1,3,1,1,2,0,0,0,1,0,0,0,1,3,1,0,0,2,0,2,1,2,2,0,1,0,1,1,0,0,1,2,1,1,1,0,1,1,1,3,1,3,3,3,3,1,1,1,0,4,0,1,1,4,"690.3999999985099","<br><br><br><br><table><tr><td><img src=static/images/oddball_up.png></td><td><img src=static/images/oddball_down.png></td><td><img src=static/images/oddball_up.png></td></tr></table>","87","1","","","","","","","","","","","","","","","","","",""
"","html-keyboard-response",120,726839.419560151,"0.0-6.0-1.17-1.17",72,21,"f",1665676449354,750,"q","q","Only if I get the answer right","Nothing","A fixed time limit",4,"female","try to focus on the 3 circles at the same time and quicky scan to detect the normal VS odd pattern","change the color of the circles because my eyes got tired when seeing the same blue background ",1,1,2,2,1,2,0,3,2,1,3,1,1,2,0,0,0,1,0,0,0,1,3,1,0,0,2,0,2,1,2,2,0,1,0,1,1,0,0,1,2,1,1,1,0,1,1,1,3,1,3,3,3,3,1,1,1,0,4,0,1,1,4,"687.819560149219","","w","","true","0","17","up","down","1","w","1","0","1665677176651.42","","","true","60","17","0.233333333333333","0.2","false"
"","html-keyboard-response",121,727347,"0.0-6.0-1.18-0.18",72,21,"f",1665676449354,750,"q","q","Only if I get the answer right","Nothing","A fixed time limit",4,"female","try to focus on the 3 circles at the same time and quicky scan to detect the normal VS odd pattern","change the color of the circles because my eyes got tired when seeing the same blue background ",1,1,2,2,1,2,0,3,2,1,3,1,1,2,0,0,0,1,0,0,0,1,3,1,0,0,2,0,2,1,2,2,0,1,0,1,1,0,0,1,2,1,1,1,0,1,1,1,3,1,3,3,3,3,1,1,1,0,4,0,1,1,4,"504.3999999985099","<br><br><br><br><table><tr><td><img src=static/images/oddball_up.png></td><td><img src=static/images/oddball_down.png></td><td><img src=static/images/oddball_up.png></td></tr></table>","87","1","","","","","","","","","","","","","","","","","",""
"","html-keyboard-response",122,727420.46715809,"0.0-6.0-1.18-1.18",72,21,"f",1665676449354,750,"q","q","Only if I get the answer right","Nothing","A fixed time limit",4,"female","try to focus on the 3 circles at the same time and quicky scan to detect the normal VS odd pattern","change the color of the circles because my eyes got tired when seeing the same blue background ",1,1,2,2,1,2,0,3,2,1,3,1,1,2,0,0,0,1,0,0,0,1,3,1,0,0,2,0,2,1,2,2,0,1,0,1,1,0,0,1,2,1,1,1,0,1,1,1,3,1,3,3,3,3,1,1,1,0,4,0,1,1,4,"472.8671580885","","w","","true","0","18","up","down","1","w","1","0","1665677177232.47","","","true","60","18","0.25","0.2","false"
"","html-keyboard-response",123,727972,"0.0-6.0-1.19-0.19",72,21,"f",1665676449354,750,"q","q","Only if I get the answer right","Nothing","A fixed time limit",4,"female","try to focus on the 3 circles at the same time and quicky scan to detect the normal VS odd pattern","change the color of the circles because my eyes got tired when seeing the same blue background ",1,1,2,2,1,2,0,3,2,1,3,1,1,2,0,0,0,1,0,0,0,1,3,1,0,0,2,0,2,1,2,2,0,1,0,1,1,0,0,1,2,1,1,1,0,1,1,1,3,1,3,3,3,3,1,1,1,0,4,0,1,1,4,"519.1999999955297","<br><br><br><br><table><tr><td><img src=static/images/oddball_up.png></td><td><img src=static/images/oddball_up.png></td><td><img src=static/images/oddball_down.png></td></tr></table>","69","1","","","","","","","","","","","","","","","","","",""
"","html-keyboard-response",124,728020.74013176,"0.0-6.0-1.19-1.19",72,21,"f",1665676449354,750,"q","q","Only if I get the answer right","Nothing","A fixed time limit",4,"female","try to focus on the 3 circles at the same time and quicky scan to detect the normal VS odd pattern","change the color of the circles because my eyes got tired when seeing the same blue background ",1,1,2,2,1,2,0,3,2,1,3,1,1,2,0,0,0,1,0,0,0,1,3,1,0,0,2,0,2,1,2,2,0,1,0,1,1,0,0,1,2,1,1,1,0,1,1,1,3,1,3,3,3,3,1,1,1,0,4,0,1,1,4,"461.94013175538","","e","","true","0","19","up","down","2","e","1","0","1665677177832.74","","","true","60","19","0.266666666666667","0.2","false"
"","html-keyboard-response",125,728833,"0.0-6.0-1.20-0.20",72,21,"f",1665676449354,750,"q","q","Only if I get the answer right","Nothing","A fixed time limit",4,"female","try to focus on the 3 circles at the same time and quicky scan to detect the normal VS odd pattern","change the color of the circles because my eyes got tired when seeing the same blue background ",1,1,2,2,1,2,0,3,2,1,3,1,1,2,0,0,0,1,0,0,0,1,3,1,0,0,2,0,2,1,2,2,0,1,0,1,1,0,0,1,2,1,1,1,0,1,1,1,3,1,3,3,3,3,1,1,1,0,4,0,1,1,4,"null","<br><br><br><br><table><tr><td><img src=static/images/oddball_down.png></td><td><img src=static/images/oddball_down.png></td><td><img src=static/images/oddball_up.png></td></tr></table>","null","","","","","","","","","","","","","","","","","","",""
"","html-keyboard-response",126,728951,"0.0-6.0-1.20-1.20",72,21,"f",1665676449354,750,"q","q","Only if I get the answer right","Nothing","A fixed time limit",4,"female","try to focus on the 3 circles at the same time and quicky scan to detect the normal VS odd pattern","change the color of the circles because my eyes got tired when seeing the same blue background ",1,1,2,2,1,2,0,3,2,1,3,1,1,2,0,0,0,1,0,0,0,1,3,1,0,0,2,0,2,1,2,2,0,1,0,1,1,0,0,1,2,1,1,1,0,1,1,1,3,1,3,3,3,3,1,1,1,0,4,0,1,1,4,"null","","null","","true","0","20","down","up","2","e","0","0","1665677178763","","","true","60","20","0.283333333333333","0.2","true"
"","html-keyboard-response",127,728956,"0.0-6.0-1.21-0.21",72,21,"f",1665676449354,750,"q","q","Only if I get the answer right","Nothing","A fixed time limit",4,"female","try to focus on the 3 circles at the same time and quicky scan to detect the normal VS odd pattern","change the color of the circles because my eyes got tired when seeing the same blue background ",1,1,2,2,1,2,0,3,2,1,3,1,1,2,0,0,0,1,0,0,0,1,3,1,0,0,2,0,2,1,2,2,0,1,0,1,1,0,0,1,2,1,1,1,0,1,1,1,3,1,3,3,3,3,1,1,1,0,4,0,1,1,4,"4.199999995529652","<br><br><br><br><table><tr><td><img src=static/images/oddball_up.png></td><td><img src=static/images/oddball_up.png></td><td><img src=static/images/oddball_down.png></td></tr></table>","81","1","","","","","","","","","","","","","","","","","",""
"","html-keyboard-response",128,729084.440024287,"0.0-6.0-1.21-1.21",72,21,"f",1665676449354,750,"q","q","Only if I get the answer right","Nothing","A fixed time limit",4,"female","try to focus on the 3 circles at the same time and quicky scan to detect the normal VS odd pattern","change the color of the circles because my eyes got tired when seeing the same blue background ",1,1,2,2,1,2,0,3,2,1,3,1,1,2,0,0,0,1,0,0,0,1,3,1,0,0,2,0,2,1,2,2,0,1,0,1,1,0,0,1,2,1,1,1,0,1,1,1,3,1,3,3,3,3,1,1,1,0,4,0,1,1,4,"24.6400242820054","","q","","true","0","21","up","down","2","e","0","0","1665677178896.44","","","true","60","21","0.283333333333333","0.2","false"
"","html-keyboard-response",129,729651,"0.0-6.0-1.22-0.22",72,21,"f",1665676449354,750,"q","q","Only if I get the answer right","Nothing","A fixed time limit",4,"female","try to focus on the 3 circles at the same time and quicky scan to detect the normal VS odd pattern","change the color of the circles because my eyes got tired when seeing the same blue background ",1,1,2,2,1,2,0,3,2,1,3,1,1,2,0,0,0,1,0,0,0,1,3,1,0,0,2,0,2,1,2,2,0,1,0,1,1,0,0,1,2,1,1,1,0,1,1,1,3,1,3,3,3,3,1,1,1,0,4,0,1,1,4,"586.7999999970198","<br><br><br><br><table><tr><td><img src=static/images/oddball_up.png></td><td><img src=static/images/oddball_down.png></td><td><img src=static/images/oddball_up.png></td></tr></table>","87","1","","","","","","","","","","","","","","","","","",""
"","html-keyboard-response",130,729722.298432701,"0.0-6.0-1.22-1.22",72,21,"f",1665676449354,750,"q","q","Only if I get the answer right","Nothing","A fixed time limit",4,"female","try to focus on the 3 circles at the same time and quicky scan to detect the normal VS odd pattern","change the color of the circles because my eyes got tired when seeing the same blue background ",1,1,2,2,1,2,0,3,2,1,3,1,1,2,0,0,0,1,0,0,0,1,3,1,0,0,2,0,2,1,2,2,0,1,0,1,1,0,0,1,2,1,1,1,0,1,1,1,3,1,3,3,3,3,1,1,1,0,4,0,1,1,4,"545.098432697626","","w","","true","0","22","up","down","1","w","1","0","1665677179534.3","","","true","60","22","0.283333333333333","0.2","false"
"","html-keyboard-response",131,730388,"0.0-6.0-1.23-0.23",72,21,"f",1665676449354,750,"q","q","Only if I get the answer right","Nothing","A fixed time limit",4,"female","try to focus on the 3 circles at the same time and quicky scan to detect the normal VS odd pattern","change the color of the circles because my eyes got tired when seeing the same blue background ",1,1,2,2,1,2,0,3,2,1,3,1,1,2,0,0,0,1,0,0,0,1,3,1,0,0,2,0,2,1,2,2,0,1,0,1,1,0,0,1,2,1,1,1,0,1,1,1,3,1,3,3,3,3,1,1,1,0,4,0,1,1,4,"622.6000000014901","<br><br><br><br><table><tr><td><img src=static/images/oddball_down.png></td><td><img src=static/images/oddball_down.png></td><td><img src=static/images/oddball_up.png></td></tr></table>","69","1","","","","","","","","","","","","","","","","","",""
"","html-keyboard-response",132,730434.787373579,"0.0-6.0-1.23-1.23",72,21,"f",1665676449354,750,"q","q","Only if I get the answer right","Nothing","A fixed time limit",4,"female","try to focus on the 3 circles at the same time and quicky scan to detect the normal VS odd pattern","change the color of the circles because my eyes got tired when seeing the same blue background ",1,1,2,2,1,2,0,3,2,1,3,1,1,2,0,0,0,1,0,0,0,1,3,1,0,0,2,0,2,1,2,2,0,1,0,1,1,0,0,1,2,1,1,1,0,1,1,1,3,1,3,3,3,3,1,1,1,0,4,0,1,1,4,"557.387373580027","","e","","true","0","23","down","up","2","e","1","0","1665677180246.79","","","true","60","23","0.3","0.2","false"
"","html-keyboard-response",133,730932,"0.0-6.0-1.24-0.24",72,21,"f",1665676449354,750,"q","q","Only if I get the answer right","Nothing","A fixed time limit",4,"female","try to focus on the 3 circles at the same time and quicky scan to detect the normal VS odd pattern","change the color of the circles because my eyes got tired when seeing the same blue background ",1,1,2,2,1,2,0,3,2,1,3,1,1,2,0,0,0,1,0,0,0,1,3,1,0,0,2,0,2,1,2,2,0,1,0,1,1,0,0,1,2,1,1,1,0,1,1,1,3,1,3,3,3,3,1,1,1,0,4,0,1,1,4,"430.8999999985099","<br><br><br><br><table><tr><td><img src=static/images/oddball_up.png></td><td><img src=static/images/oddball_up.png></td><td><img src=static/images/oddball_down.png></td></tr></table>","69","1","","","","","","","","","","","","","","","","","",""
"","html-keyboard-response",134,730969.259313532,"0.0-6.0-1.24-1.24",72,21,"f",1665676449354,750,"q","q","Only if I get the answer right","Nothing","A fixed time limit",4,"female","try to focus on the 3 circles at the same time and quicky scan to detect the normal VS odd pattern","change the color of the circles because my eyes got tired when seeing the same blue background ",1,1,2,2,1,2,0,3,2,1,3,1,1,2,0,0,0,1,0,0,0,1,3,1,0,0,2,0,2,1,2,2,0,1,0,1,1,0,0,1,2,1,1,1,0,1,1,1,3,1,3,3,3,3,1,1,1,0,4,0,1,1,4,"366.159313530782","","e","","true","0","24","up","down","2","e","1","0","1665677180781.26","","","true","60","24","0.316666666666667","0.2","false"
"","html-keyboard-response",135,731596,"0.0-6.0-1.25-0.25",72,21,"f",1665676449354,750,"q","q","Only if I get the answer right","Nothing","A fixed time limit",4,"female","try to focus on the 3 circles at the same time and quicky scan to detect the normal VS odd pattern","change the color of the circles because my eyes got tired when seeing the same blue background ",1,1,2,2,1,2,0,3,2,1,3,1,1,2,0,0,0,1,0,0,0,1,3,1,0,0,2,0,2,1,2,2,0,1,0,1,1,0,0,1,2,1,1,1,0,1,1,1,3,1,3,3,3,3,1,1,1,0,4,0,1,1,4,"560.7999999970198","<br><br><br><br><table><tr><td><img src=static/images/oddball_up.png></td><td><img src=static/images/oddball_down.png></td><td><img src=static/images/oddball_up.png></td></tr></table>","81","1","","","","","","","","","","","","","","","","","",""
"","html-keyboard-response",136,731675.500557495,"0.0-6.0-1.25-1.25",72,21,"f",1665676449354,750,"q","q","Only if I get the answer right","Nothing","A fixed time limit",4,"female","try to focus on the 3 circles at the same time and quicky scan to detect the normal VS odd pattern","change the color of the circles because my eyes got tired when seeing the same blue background ",1,1,2,2,1,2,0,3,2,1,3,1,1,2,0,0,0,1,0,0,0,1,3,1,0,0,2,0,2,1,2,2,0,1,0,1,1,0,0,1,2,1,1,1,0,1,1,1,3,1,3,3,3,3,1,1,1,0,4,0,1,1,4,"535.300557492405","","q","","true","0","25","up","down","1","w","0","0","1665677181487.5","","","true","60","25","0.333333333333333","0.2","false"
"","html-keyboard-response",137,732332,"0.0-6.0-1.26-0.26",72,21,"f",1665676449354,750,"q","q","Only if I get the answer right","Nothing","A fixed time limit",4,"female","try to focus on the 3 circles at the same time and quicky scan to detect the normal VS odd pattern","change the color of the circles because my eyes got tired when seeing the same blue background ",1,1,2,2,1,2,0,3,2,1,3,1,1,2,0,0,0,1,0,0,0,1,3,1,0,0,2,0,2,1,2,2,0,1,0,1,1,0,0,1,2,1,1,1,0,1,1,1,3,1,3,3,3,3,1,1,1,0,4,0,1,1,4,"630.0999999940395","<br><br><br><br><table><tr><td><img src=static/images/oddball_down.png></td><td><img src=static/images/oddball_down.png></td><td><img src=static/images/oddball_up.png></td></tr></table>","69","1","","","","","","","","","","","","","","","","","",""
"","html-keyboard-response",138,732335.039732966,"0.0-6.0-1.26-1.26",72,21,"f",1665676449354,750,"q","q","Only if I get the answer right","Nothing","A fixed time limit",4,"female","try to focus on the 3 circles at the same time and quicky scan to detect the normal VS odd pattern","change the color of the circles because my eyes got tired when seeing the same blue background ",1,1,2,2,1,2,0,3,2,1,3,1,1,2,0,0,0,1,0,0,0,1,3,1,0,0,2,0,2,1,2,2,0,1,0,1,1,0,0,1,2,1,1,1,0,1,1,1,3,1,3,3,3,3,1,1,1,0,4,0,1,1,4,"528.13973296052","","e","","true","0","26","down","up","2","e","1","0","1665677182147.04","","","true","60","26","0.333333333333333","0.2","false"
"","html-keyboard-response",139,732972,"0.0-6.0-1.27-0.27",72,21,"f",1665676449354,750,"q","q","Only if I get the answer right","Nothing","A fixed time limit",4,"female","try to focus on the 3 circles at the same time and quicky scan to detect the normal VS odd pattern","change the color of the circles because my eyes got tired when seeing the same blue background ",1,1,2,2,1,2,0,3,2,1,3,1,1,2,0,0,0,1,0,0,0,1,3,1,0,0,2,0,2,1,2,2,0,1,0,1,1,0,0,1,2,1,1,1,0,1,1,1,3,1,3,3,3,3,1,1,1,0,4,0,1,1,4,"534.3999999985099","<br><br><br><br><table><tr><td><img src=static/images/oddball_down.png></td><td><img src=static/images/oddball_down.png></td><td><img src=static/images/oddball_up.png></td></tr></table>","69","1","","","","","","","","","","","","","","","","","",""
"","html-keyboard-response",140,733022.046030861,"0.0-6.0-1.27-1.27",72,21,"f",1665676449354,750,"q","q","Only if I get the answer right","Nothing","A fixed time limit",4,"female","try to focus on the 3 circles at the same time and quicky scan to detect the normal VS odd pattern","change the color of the circles because my eyes got tired when seeing the same blue background ",1,1,2,2,1,2,0,3,2,1,3,1,1,2,0,0,0,1,0,0,0,1,3,1,0,0,2,0,2,1,2,2,0,1,0,1,1,0,0,1,2,1,1,1,0,1,1,1,3,1,3,3,3,3,1,1,1,0,4,0,1,1,4,"468.446030859059","","e","","true","0","27","down","up","2","e","1","0","1665677182834.05","","","true","60","27","0.35","0.2","false"
"","html-keyboard-response",141,733492,"0.0-6.0-1.28-0.28",72,21,"f",1665676449354,750,"q","q","Only if I get the answer right","Nothing","A fixed time limit",4,"female","try to focus on the 3 circles at the same time and quicky scan to detect the normal VS odd pattern","change the color of the circles because my eyes got tired when seeing the same blue background ",1,1,2,2,1,2,0,3,2,1,3,1,1,2,0,0,0,1,0,0,0,1,3,1,0,0,2,0,2,1,2,2,0,1,0,1,1,0,0,1,2,1,1,1,0,1,1,1,3,1,3,3,3,3,1,1,1,0,4,0,1,1,4,"403.30000000447035","<br><br><br><br><table><tr><td><img src=static/images/oddball_down.png></td><td><img src=static/images/oddball_down.png></td><td><img src=static/images/oddball_up.png></td></tr></table>","69","1","","","","","","","","","","","","","","","","","",""
"","html-keyboard-response",142,733683.564446502,"0.0-6.0-1.28-1.28",72,21,"f",1665676449354,750,"q","q","Only if I get the answer right","Nothing","A fixed time limit",4,"female","try to focus on the 3 circles at the same time and quicky scan to detect the normal VS odd pattern","change the color of the circles because my eyes got tired when seeing the same blue background ",1,1,2,2,1,2,0,3,2,1,3,1,1,2,0,0,0,1,0,0,0,1,3,1,0,0,2,0,2,1,2,2,0,1,0,1,1,0,0,1,2,1,1,1,0,1,1,1,3,1,3,3,3,3,1,1,1,0,4,0,1,1,4,"480.864446506116","","e","","true","0","28","down","up","2","e","1","0","1665677183495.56","","","true","60","28","0.366666666666667","0.2","false"
"","html-keyboard-response",143,734034,"0.0-6.0-1.29-0.29",72,21,"f",1665676449354,750,"q","q","Only if I get the answer right","Nothing","A fixed time limit",4,"female","try to focus on the 3 circles at the same time and quicky scan to detect the normal VS odd pattern","change the color of the circles because my eyes got tired when seeing the same blue background ",1,1,2,2,1,2,0,3,2,1,3,1,1,2,0,0,0,1,0,0,0,1,3,1,0,0,2,0,2,1,2,2,0,1,0,1,1,0,0,1,2,1,1,1,0,1,1,1,3,1,3,3,3,3,1,1,1,0,4,0,1,1,4,"437","<br><br><br><br><table><tr><td><img src=static/images/oddball_down.png></td><td><img src=static/images/oddball_down.png></td><td><img src=static/images/oddball_up.png></td></tr></table>","69","1","","","","","","","","","","","","","","","","","",""
"","html-keyboard-response",144,734034.622848139,"0.0-6.0-1.29-1.29",72,21,"f",1665676449354,750,"q","q","Only if I get the answer right","Nothing","A fixed time limit",4,"female","try to focus on the 3 circles at the same time and quicky scan to detect the normal VS odd pattern","change the color of the circles because my eyes got tired when seeing the same blue background ",1,1,2,2,1,2,0,3,2,1,3,1,1,2,0,0,0,1,0,0,0,1,3,1,0,0,2,0,2,1,2,2,0,1,0,1,1,0,0,1,2,1,1,1,0,1,1,1,3,1,3,3,3,3,1,1,1,0,4,0,1,1,4,"332.623","","e","","true","0","29","down","up","2","e","1","0","1665677183846.62","","","true","60","29","0.383333333333333","0.2","false"
"","html-keyboard-response",145,734658,"0.0-6.0-1.30-0.30",72,21,"f",1665676449354,750,"q","q","Only if I get the answer right","Nothing","A fixed time limit",4,"female","try to focus on the 3 circles at the same time and quicky scan to detect the normal VS odd pattern","change the color of the circles because my eyes got tired when seeing the same blue background ",1,1,2,2,1,2,0,3,2,1,3,1,1,2,0,0,0,1,0,0,0,1,3,1,0,0,2,0,2,1,2,2,0,1,0,1,1,0,0,1,2,1,1,1,0,1,1,1,3,1,3,3,3,3,1,1,1,0,4,0,1,1,4,"518.2999999970198","<br><br><br><br><table><tr><td><img src=static/images/oddball_up.png></td><td><img src=static/images/oddball_down.png></td><td><img src=static/images/oddball_down.png></td></tr></table>","81","1","","","","","","","","","","","","","","","","","",""
"","html-keyboard-response",146,734750.21800535,"0.0-6.0-1.30-1.30",72,21,"f",1665676449354,750,"q","q","Only if I get the answer right","Nothing","A fixed time limit",4,"female","try to focus on the 3 circles at the same time and quicky scan to detect the normal VS odd pattern","change the color of the circles because my eyes got tired when seeing the same blue background ",1,1,2,2,1,2,0,3,2,1,3,1,1,2,0,0,0,1,0,0,0,1,3,1,0,0,2,0,2,1,2,2,0,1,0,1,1,0,0,1,2,1,1,1,0,1,1,1,3,1,3,3,3,3,1,1,1,0,4,0,1,1,4,"505.518005347185","","q","","true","0","30","down","up","0","q","1","0","1665677184562.22","","","true","60","30","0.4","0.2","false"
