"success","trial_type","trial_index","time_elapsed","internal_node_id","subject","age","sex","date","deadline","instQ1","instQ2","instQ3","instQ4","instQ5","totalInstQ","gender","strategy","comments","DASS1_s","DASS2_a","DASS3_d","DASS4_a","DASS5_d","DASS6_s","DASS7_a","DASS8_s","DASS9_a","DASS10_d","DASS11_s","DASS12_s","DASS13_d","DASS14_s","DASS15_a","DASS16_d","DASS17_d","DASS18_s","DASS19_a","DASS20_a","DASS21_d","BB1","BB2","BB3","BB4","BB5","BB6","BB7","BB8","BB9","BB10","BB11","BB12","BB13","BB14","BB15","BB16","BB17","BB18","BB19","BB20","BB21","BB22","BB23","BB24","NFC1","NFC2","NFC3","NFC4","NFC5","NFC6","NFC7","NFC8","NFC9","NFC10","NFC11","NFC12","NFC13","NFC14","NFC15","NFC16","NFC17","NFC18","rt","stimulus","key_press","npress","isDataTrial","block","trialinblock","common","odd","oddidx","correct_ans","accuracy","totalTokens","timestamp","responses","question_order","showprog","blocklen","trial","progress","reward","timedout"
"true","fullscreen",0,3770,"0.0-0.0",55,20,"f",1664215187303,750,"q","q","Only if I get the answer right","You win money","A fixed time limit",5,FALSE,"I took a few seconds break between every run (drinking water, taking a few steps around the room, breathing in and out) because when I didn't, all the shapes started blending together.","none",1,0,1,3,1,3,0,3,0,0,1,2,0,0,1,0,0,0,3,0,0,1,3,1,0,0,0,0,0,1,0,3,0,1,0,1,0,0,0,0,1,1,1,0,1,3,2,2,1,0,3,0,1,3,3,2,0,1,3,2,1,0,4,"","","","","","","","","","","","","","","","","","","","","",""
"","image-keyboard-response",1,124591,"0.0-1.0-0.0",55,20,"f",1664215187303,750,"q","q","Only if I get the answer right","You win money","A fixed time limit",5,FALSE,"I took a few seconds break between every run (drinking water, taking a few steps around the room, breathing in and out) because when I didn't, all the shapes started blending together.","none",1,0,1,3,1,3,0,3,0,0,1,2,0,0,1,0,0,0,3,0,0,1,3,1,0,0,0,0,0,1,0,3,0,1,0,1,0,0,0,0,1,1,1,0,1,3,2,2,1,0,3,0,1,3,3,2,0,1,3,2,1,0,4,"120819.79999995232","static/images/instructions/Slide1.png","39","","","","","","","","","","","","","","","","","","",""
"","image-keyboard-response",2,130302,"0.0-1.1-0.1",55,20,"f",1664215187303,750,"q","q","Only if I get the answer right","You win money","A fixed time limit",5,FALSE,"I took a few seconds break between every run (drinking water, taking a few steps around the room, breathing in and out) because when I didn't, all the shapes started blending together.","none",1,0,1,3,1,3,0,3,0,0,1,2,0,0,1,0,0,0,3,0,0,1,3,1,0,0,0,0,0,1,0,3,0,1,0,1,0,0,0,0,1,1,1,0,1,3,2,2,1,0,3,0,1,3,3,2,0,1,3,2,1,0,4,"5710.199999988079","static/images/instructions/Slide2.png","39","","","","","","","","","","","","","","","","","","",""
"","image-keyboard-response",3,136870,"0.0-1.2-0.2",55,20,"f",1664215187303,750,"q","q","Only if I get the answer right","You win money","A fixed time limit",5,FALSE,"I took a few seconds break between every run (drinking water, taking a few steps around the room, breathing in and out) because when I didn't, all the shapes started blending together.","none",1,0,1,3,1,3,0,3,0,0,1,2,0,0,1,0,0,0,3,0,0,1,3,1,0,0,0,0,0,1,0,3,0,1,0,1,0,0,0,0,1,1,1,0,1,3,2,2,1,0,3,0,1,3,3,2,0,1,3,2,1,0,4,"6567.100000023842","static/images/instructions/Slide3.png","39","","","","","","","","","","","","","","","","","","",""
"","image-keyboard-response",4,141358,"0.0-1.3-0.3",55,20,"f",1664215187303,750,"q","q","Only if I get the answer right","You win money","A fixed time limit",5,FALSE,"I took a few seconds break between every run (drinking water, taking a few steps around the room, breathing in and out) because when I didn't, all the shapes started blending together.","none",1,0,1,3,1,3,0,3,0,0,1,2,0,0,1,0,0,0,3,0,0,1,3,1,0,0,0,0,0,1,0,3,0,1,0,1,0,0,0,0,1,1,1,0,1,3,2,2,1,0,3,0,1,3,3,2,0,1,3,2,1,0,4,"4487.300000011921","static/images/instructions/Slide4.png","39","","","","","","","","","","","","","","","","","","",""
"","image-keyboard-response",5,145798,"0.0-1.4-0.4",55,20,"f",1664215187303,750,"q","q","Only if I get the answer right","You win money","A fixed time limit",5,FALSE,"I took a few seconds break between every run (drinking water, taking a few steps around the room, breathing in and out) because when I didn't, all the shapes started blending together.","none",1,0,1,3,1,3,0,3,0,0,1,2,0,0,1,0,0,0,3,0,0,1,3,1,0,0,0,0,0,1,0,3,0,1,0,1,0,0,0,0,1,1,1,0,1,3,2,2,1,0,3,0,1,3,3,2,0,1,3,2,1,0,4,"4439.299999952316","static/images/instructions/Slide5.png","39","","","","","","","","","","","","","","","","","","",""
"","image-keyboard-response",6,149614,"0.0-1.5-0.5",55,20,"f",1664215187303,750,"q","q","Only if I get the answer right","You win money","A fixed time limit",5,FALSE,"I took a few seconds break between every run (drinking water, taking a few steps around the room, breathing in and out) because when I didn't, all the shapes started blending together.","none",1,0,1,3,1,3,0,3,0,0,1,2,0,0,1,0,0,0,3,0,0,1,3,1,0,0,0,0,0,1,0,3,0,1,0,1,0,0,0,0,1,1,1,0,1,3,2,2,1,0,3,0,1,3,3,2,0,1,3,2,1,0,4,"3815.399999976158","static/images/instructions/Slide6.png","39","","","","","","","","","","","","","","","","","","",""
"","image-keyboard-response",7,182534,"0.0-1.6-0.6",55,20,"f",1664215187303,750,"q","q","Only if I get the answer right","You win money","A fixed time limit",5,FALSE,"I took a few seconds break between every run (drinking water, taking a few steps around the room, breathing in and out) because when I didn't, all the shapes started blending together.","none",1,0,1,3,1,3,0,3,0,0,1,2,0,0,1,0,0,0,3,0,0,1,3,1,0,0,0,0,0,1,0,3,0,1,0,1,0,0,0,0,1,1,1,0,1,3,2,2,1,0,3,0,1,3,3,2,0,1,3,2,1,0,4,"32919.60000002384","static/images/instructions/Slide7.png","39","","","","","","","","","","","","","","","","","","",""
"","html-keyboard-response",8,183606,"0.0-2.0-0.0",55,20,"f",1664215187303,750,"q","q","Only if I get the answer right","You win money","A fixed time limit",5,FALSE,"I took a few seconds break between every run (drinking water, taking a few steps around the room, breathing in and out) because when I didn't, all the shapes started blending together.","none",1,0,1,3,1,3,0,3,0,0,1,2,0,0,1,0,0,0,3,0,0,1,3,1,0,0,0,0,0,1,0,3,0,1,0,1,0,0,0,0,1,1,1,0,1,3,2,2,1,0,3,0,1,3,3,2,0,1,3,2,1,0,4,"1057.1000000238419","<br><br><br><br><table><tr><td><img src=static/images/oddball_up.png></td><td><img src=static/images/oddball_down.png></td><td><img src=static/images/oddball_up.png></td></tr></table>","87","1","","","","","","","","","","","","","","","","","",""
"","html-keyboard-response",9,186121,"0.0-2.0-1.0",55,20,"f",1664215187303,750,"q","q","Only if I get the answer right","You win money","A fixed time limit",5,FALSE,"I took a few seconds break between every run (drinking water, taking a few steps around the room, breathing in and out) because when I didn't, all the shapes started blending together.","none",1,0,1,3,1,3,0,3,0,0,1,2,0,0,1,0,0,0,3,0,0,1,3,1,0,0,0,0,0,1,0,3,0,1,0,1,0,0,0,0,1,1,1,0,1,3,2,2,1,0,3,0,1,3,3,2,0,1,3,2,1,0,4,"null","<div style=""font-size:75px;""><b>Correct</b></div>","null","","","","","","","","","","","","","","","","","","",""
"","html-keyboard-response",10,187124,"0.0-2.0-2.0",55,20,"f",1664215187303,750,"q","q","Only if I get the answer right","You win money","A fixed time limit",5,FALSE,"I took a few seconds break between every run (drinking water, taking a few steps around the room, breathing in and out) because when I didn't, all the shapes started blending together.","none",1,0,1,3,1,3,0,3,0,0,1,2,0,0,1,0,0,0,3,0,0,1,3,1,0,0,0,0,0,1,0,3,0,1,0,1,0,0,0,0,1,1,1,0,1,3,2,2,1,0,3,0,1,3,3,2,0,1,3,2,1,0,4,"1057.1000000238419","","w","","true","practice","0","up","down","1","w","1","0","1664215374849","","","","","","","",""
"","html-keyboard-response",11,187990,"0.0-2.1-0.1",55,20,"f",1664215187303,750,"q","q","Only if I get the answer right","You win money","A fixed time limit",5,FALSE,"I took a few seconds break between every run (drinking water, taking a few steps around the room, breathing in and out) because when I didn't, all the shapes started blending together.","none",1,0,1,3,1,3,0,3,0,0,1,2,0,0,1,0,0,0,3,0,0,1,3,1,0,0,0,0,0,1,0,3,0,1,0,1,0,0,0,0,1,1,1,0,1,3,2,2,1,0,3,0,1,3,3,2,0,1,3,2,1,0,4,"865.6999999880791","<br><br><br><br><table><tr><td><img src=static/images/oddball_up.png></td><td><img src=static/images/oddball_down.png></td><td><img src=static/images/oddball_up.png></td></tr></table>","87","1","","","","","","","","","","","","","","","","","",""
"","html-keyboard-response",12,190494,"0.0-2.1-1.1",55,20,"f",1664215187303,750,"q","q","Only if I get the answer right","You win money","A fixed time limit",5,FALSE,"I took a few seconds break between every run (drinking water, taking a few steps around the room, breathing in and out) because when I didn't, all the shapes started blending together.","none",1,0,1,3,1,3,0,3,0,0,1,2,0,0,1,0,0,0,3,0,0,1,3,1,0,0,0,0,0,1,0,3,0,1,0,1,0,0,0,0,1,1,1,0,1,3,2,2,1,0,3,0,1,3,3,2,0,1,3,2,1,0,4,"null","<div style=""font-size:75px;""><b>Correct</b></div>","null","","","","","","","","","","","","","","","","","","",""
"","html-keyboard-response",13,191498,"0.0-2.1-2.1",55,20,"f",1664215187303,750,"q","q","Only if I get the answer right","You win money","A fixed time limit",5,FALSE,"I took a few seconds break between every run (drinking water, taking a few steps around the room, breathing in and out) because when I didn't, all the shapes started blending together.","none",1,0,1,3,1,3,0,3,0,0,1,2,0,0,1,0,0,0,3,0,0,1,3,1,0,0,0,0,0,1,0,3,0,1,0,1,0,0,0,0,1,1,1,0,1,3,2,2,1,0,3,0,1,3,3,2,0,1,3,2,1,0,4,"865.6999999880791","","w","","true","practice","1","up","down","1","w","1","0","1664215379223","","","","","","","",""
"","html-keyboard-response",14,192310,"0.0-2.2-0.2",55,20,"f",1664215187303,750,"q","q","Only if I get the answer right","You win money","A fixed time limit",5,FALSE,"I took a few seconds break between every run (drinking water, taking a few steps around the room, breathing in and out) because when I didn't, all the shapes started blending together.","none",1,0,1,3,1,3,0,3,0,0,1,2,0,0,1,0,0,0,3,0,0,1,3,1,0,0,0,0,0,1,0,3,0,1,0,1,0,0,0,0,1,1,1,0,1,3,2,2,1,0,3,0,1,3,3,2,0,1,3,2,1,0,4,"811.4000000357628","<br><br><br><br><table><tr><td><img src=static/images/oddball_down.png></td><td><img src=static/images/oddball_up.png></td><td><img src=static/images/oddball_up.png></td></tr></table>","81","1","","","","","","","","","","","","","","","","","",""
"","html-keyboard-response",15,194817,"0.0-2.2-1.2",55,20,"f",1664215187303,750,"q","q","Only if I get the answer right","You win money","A fixed time limit",5,FALSE,"I took a few seconds break between every run (drinking water, taking a few steps around the room, breathing in and out) because when I didn't, all the shapes started blending together.","none",1,0,1,3,1,3,0,3,0,0,1,2,0,0,1,0,0,0,3,0,0,1,3,1,0,0,0,0,0,1,0,3,0,1,0,1,0,0,0,0,1,1,1,0,1,3,2,2,1,0,3,0,1,3,3,2,0,1,3,2,1,0,4,"null","<div style=""font-size:75px;""><b>Correct</b></div>","null","","","","","","","","","","","","","","","","","","",""
"","html-keyboard-response",16,195819,"0.0-2.2-2.2",55,20,"f",1664215187303,750,"q","q","Only if I get the answer right","You win money","A fixed time limit",5,FALSE,"I took a few seconds break between every run (drinking water, taking a few steps around the room, breathing in and out) because when I didn't, all the shapes started blending together.","none",1,0,1,3,1,3,0,3,0,0,1,2,0,0,1,0,0,0,3,0,0,1,3,1,0,0,0,0,0,1,0,3,0,1,0,1,0,0,0,0,1,1,1,0,1,3,2,2,1,0,3,0,1,3,3,2,0,1,3,2,1,0,4,"811.4000000357628","","q","","true","practice","2","up","down","0","q","1","0","1664215383544","","","","","","","",""
"","html-keyboard-response",17,196574,"0.0-2.3-0.3",55,20,"f",1664215187303,750,"q","q","Only if I get the answer right","You win money","A fixed time limit",5,FALSE,"I took a few seconds break between every run (drinking water, taking a few steps around the room, breathing in and out) because when I didn't, all the shapes started blending together.","none",1,0,1,3,1,3,0,3,0,0,1,2,0,0,1,0,0,0,3,0,0,1,3,1,0,0,0,0,0,1,0,3,0,1,0,1,0,0,0,0,1,1,1,0,1,3,2,2,1,0,3,0,1,3,3,2,0,1,3,2,1,0,4,"755.1000000238419","<br><br><br><br><table><tr><td><img src=static/images/oddball_up.png></td><td><img src=static/images/oddball_down.png></td><td><img src=static/images/oddball_up.png></td></tr></table>","87","1","","","","","","","","","","","","","","","","","",""
"","html-keyboard-response",18,199076,"0.0-2.3-1.3",55,20,"f",1664215187303,750,"q","q","Only if I get the answer right","You win money","A fixed time limit",5,FALSE,"I took a few seconds break between every run (drinking water, taking a few steps around the room, breathing in and out) because when I didn't, all the shapes started blending together.","none",1,0,1,3,1,3,0,3,0,0,1,2,0,0,1,0,0,0,3,0,0,1,3,1,0,0,0,0,0,1,0,3,0,1,0,1,0,0,0,0,1,1,1,0,1,3,2,2,1,0,3,0,1,3,3,2,0,1,3,2,1,0,4,"null","<div style=""font-size:75px;""><b>Correct</b></div>","null","","","","","","","","","","","","","","","","","","",""
"","html-keyboard-response",19,200081,"0.0-2.3-2.3",55,20,"f",1664215187303,750,"q","q","Only if I get the answer right","You win money","A fixed time limit",5,FALSE,"I took a few seconds break between every run (drinking water, taking a few steps around the room, breathing in and out) because when I didn't, all the shapes started blending together.","none",1,0,1,3,1,3,0,3,0,0,1,2,0,0,1,0,0,0,3,0,0,1,3,1,0,0,0,0,0,1,0,3,0,1,0,1,0,0,0,0,1,1,1,0,1,3,2,2,1,0,3,0,1,3,3,2,0,1,3,2,1,0,4,"755.1000000238419","","w","","true","practice","3","up","down","1","w","1","0","1664215387806","","","","","","","",""
"","html-keyboard-response",20,200750,"0.0-2.4-0.4",55,20,"f",1664215187303,750,"q","q","Only if I get the answer right","You win money","A fixed time limit",5,FALSE,"I took a few seconds break between every run (drinking water, taking a few steps around the room, breathing in and out) because when I didn't, all the shapes started blending together.","none",1,0,1,3,1,3,0,3,0,0,1,2,0,0,1,0,0,0,3,0,0,1,3,1,0,0,0,0,0,1,0,3,0,1,0,1,0,0,0,0,1,1,1,0,1,3,2,2,1,0,3,0,1,3,3,2,0,1,3,2,1,0,4,"668.8000000119209","<br><br><br><br><table><tr><td><img src=static/images/oddball_down.png></td><td><img src=static/images/oddball_down.png></td><td><img src=static/images/oddball_up.png></td></tr></table>","69","1","","","","","","","","","","","","","","","","","",""
"","html-keyboard-response",21,203253,"0.0-2.4-1.4",55,20,"f",1664215187303,750,"q","q","Only if I get the answer right","You win money","A fixed time limit",5,FALSE,"I took a few seconds break between every run (drinking water, taking a few steps around the room, breathing in and out) because when I didn't, all the shapes started blending together.","none",1,0,1,3,1,3,0,3,0,0,1,2,0,0,1,0,0,0,3,0,0,1,3,1,0,0,0,0,0,1,0,3,0,1,0,1,0,0,0,0,1,1,1,0,1,3,2,2,1,0,3,0,1,3,3,2,0,1,3,2,1,0,4,"null","<div style=""font-size:75px;""><b>Correct</b></div>","null","","","","","","","","","","","","","","","","","","",""
"","html-keyboard-response",22,204255,"0.0-2.4-2.4",55,20,"f",1664215187303,750,"q","q","Only if I get the answer right","You win money","A fixed time limit",5,FALSE,"I took a few seconds break between every run (drinking water, taking a few steps around the room, breathing in and out) because when I didn't, all the shapes started blending together.","none",1,0,1,3,1,3,0,3,0,0,1,2,0,0,1,0,0,0,3,0,0,1,3,1,0,0,0,0,0,1,0,3,0,1,0,1,0,0,0,0,1,1,1,0,1,3,2,2,1,0,3,0,1,3,3,2,0,1,3,2,1,0,4,"668.8000000119209","","e","","true","practice","4","down","up","2","e","1","0","1664215391980","","","","","","","",""
"","html-keyboard-response",23,204886,"0.0-2.5-0.5",55,20,"f",1664215187303,750,"q","q","Only if I get the answer right","You win money","A fixed time limit",5,FALSE,"I took a few seconds break between every run (drinking water, taking a few steps around the room, breathing in and out) because when I didn't, all the shapes started blending together.","none",1,0,1,3,1,3,0,3,0,0,1,2,0,0,1,0,0,0,3,0,0,1,3,1,0,0,0,0,0,1,0,3,0,1,0,1,0,0,0,0,1,1,1,0,1,3,2,2,1,0,3,0,1,3,3,2,0,1,3,2,1,0,4,"630.8000000119209","<br><br><br><br><table><tr><td><img src=static/images/oddball_down.png></td><td><img src=static/images/oddball_up.png></td><td><img src=static/images/oddball_down.png></td></tr></table>","87","1","","","","","","","","","","","","","","","","","",""
"","html-keyboard-response",24,207391,"0.0-2.5-1.5",55,20,"f",1664215187303,750,"q","q","Only if I get the answer right","You win money","A fixed time limit",5,FALSE,"I took a few seconds break between every run (drinking water, taking a few steps around the room, breathing in and out) because when I didn't, all the shapes started blending together.","none",1,0,1,3,1,3,0,3,0,0,1,2,0,0,1,0,0,0,3,0,0,1,3,1,0,0,0,0,0,1,0,3,0,1,0,1,0,0,0,0,1,1,1,0,1,3,2,2,1,0,3,0,1,3,3,2,0,1,3,2,1,0,4,"null","<div style=""font-size:75px;""><b>Correct</b></div>","null","","","","","","","","","","","","","","","","","","",""
"","html-keyboard-response",25,208393,"0.0-2.5-2.5",55,20,"f",1664215187303,750,"q","q","Only if I get the answer right","You win money","A fixed time limit",5,FALSE,"I took a few seconds break between every run (drinking water, taking a few steps around the room, breathing in and out) because when I didn't, all the shapes started blending together.","none",1,0,1,3,1,3,0,3,0,0,1,2,0,0,1,0,0,0,3,0,0,1,3,1,0,0,0,0,0,1,0,3,0,1,0,1,0,0,0,0,1,1,1,0,1,3,2,2,1,0,3,0,1,3,3,2,0,1,3,2,1,0,4,"630.8000000119209","","w","","true","practice","5","down","up","1","w","1","0","1664215396118","","","","","","","",""
"","html-keyboard-response",26,209126,"0.0-2.6-0.6",55,20,"f",1664215187303,750,"q","q","Only if I get the answer right","You win money","A fixed time limit",5,FALSE,"I took a few seconds break between every run (drinking water, taking a few steps around the room, breathing in and out) because when I didn't, all the shapes started blending together.","none",1,0,1,3,1,3,0,3,0,0,1,2,0,0,1,0,0,0,3,0,0,1,3,1,0,0,0,0,0,1,0,3,0,1,0,1,0,0,0,0,1,1,1,0,1,3,2,2,1,0,3,0,1,3,3,2,0,1,3,2,1,0,4,"732.5","<br><br><br><br><table><tr><td><img src=static/images/oddball_up.png></td><td><img src=static/images/oddball_down.png></td><td><img src=static/images/oddball_down.png></td></tr></table>","81","1","","","","","","","","","","","","","","","","","",""
"","html-keyboard-response",27,211631,"0.0-2.6-1.6",55,20,"f",1664215187303,750,"q","q","Only if I get the answer right","You win money","A fixed time limit",5,FALSE,"I took a few seconds break between every run (drinking water, taking a few steps around the room, breathing in and out) because when I didn't, all the shapes started blending together.","none",1,0,1,3,1,3,0,3,0,0,1,2,0,0,1,0,0,0,3,0,0,1,3,1,0,0,0,0,0,1,0,3,0,1,0,1,0,0,0,0,1,1,1,0,1,3,2,2,1,0,3,0,1,3,3,2,0,1,3,2,1,0,4,"null","<div style=""font-size:75px;""><b>Correct</b></div>","null","","","","","","","","","","","","","","","","","","",""
"","html-keyboard-response",28,212646,"0.0-2.6-2.6",55,20,"f",1664215187303,750,"q","q","Only if I get the answer right","You win money","A fixed time limit",5,FALSE,"I took a few seconds break between every run (drinking water, taking a few steps around the room, breathing in and out) because when I didn't, all the shapes started blending together.","none",1,0,1,3,1,3,0,3,0,0,1,2,0,0,1,0,0,0,3,0,0,1,3,1,0,0,0,0,0,1,0,3,0,1,0,1,0,0,0,0,1,1,1,0,1,3,2,2,1,0,3,0,1,3,3,2,0,1,3,2,1,0,4,"732.5","","q","","true","practice","6","down","up","0","q","1","0","1664215400371","","","","","","","",""
"","html-keyboard-response",29,213206,"0.0-2.7-0.7",55,20,"f",1664215187303,750,"q","q","Only if I get the answer right","You win money","A fixed time limit",5,FALSE,"I took a few seconds break between every run (drinking water, taking a few steps around the room, breathing in and out) because when I didn't, all the shapes started blending together.","none",1,0,1,3,1,3,0,3,0,0,1,2,0,0,1,0,0,0,3,0,0,1,3,1,0,0,0,0,0,1,0,3,0,1,0,1,0,0,0,0,1,1,1,0,1,3,2,2,1,0,3,0,1,3,3,2,0,1,3,2,1,0,4,"559.8999999761581","<br><br><br><br><table><tr><td><img src=static/images/oddball_down.png></td><td><img src=static/images/oddball_up.png></td><td><img src=static/images/oddball_up.png></td></tr></table>","81","1","","","","","","","","","","","","","","","","","",""
"","html-keyboard-response",30,215708,"0.0-2.7-1.7",55,20,"f",1664215187303,750,"q","q","Only if I get the answer right","You win money","A fixed time limit",5,FALSE,"I took a few seconds break between every run (drinking water, taking a few steps around the room, breathing in and out) because when I didn't, all the shapes started blending together.","none",1,0,1,3,1,3,0,3,0,0,1,2,0,0,1,0,0,0,3,0,0,1,3,1,0,0,0,0,0,1,0,3,0,1,0,1,0,0,0,0,1,1,1,0,1,3,2,2,1,0,3,0,1,3,3,2,0,1,3,2,1,0,4,"null","<div style=""font-size:75px;""><b>Correct</b></div>","null","","","","","","","","","","","","","","","","","","",""
"","html-keyboard-response",31,216713,"0.0-2.7-2.7",55,20,"f",1664215187303,750,"q","q","Only if I get the answer right","You win money","A fixed time limit",5,FALSE,"I took a few seconds break between every run (drinking water, taking a few steps around the room, breathing in and out) because when I didn't, all the shapes started blending together.","none",1,0,1,3,1,3,0,3,0,0,1,2,0,0,1,0,0,0,3,0,0,1,3,1,0,0,0,0,0,1,0,3,0,1,0,1,0,0,0,0,1,1,1,0,1,3,2,2,1,0,3,0,1,3,3,2,0,1,3,2,1,0,4,"559.8999999761581","","q","","true","practice","7","up","down","0","q","1","0","1664215404438","","","","","","","",""
"","html-keyboard-response",32,217326,"0.0-2.8-0.8",55,20,"f",1664215187303,750,"q","q","Only if I get the answer right","You win money","A fixed time limit",5,FALSE,"I took a few seconds break between every run (drinking water, taking a few steps around the room, breathing in and out) because when I didn't, all the shapes started blending together.","none",1,0,1,3,1,3,0,3,0,0,1,2,0,0,1,0,0,0,3,0,0,1,3,1,0,0,0,0,0,1,0,3,0,1,0,1,0,0,0,0,1,1,1,0,1,3,2,2,1,0,3,0,1,3,3,2,0,1,3,2,1,0,4,"613.0999999642372","<br><br><br><br><table><tr><td><img src=static/images/oddball_down.png></td><td><img src=static/images/oddball_up.png></td><td><img src=static/images/oddball_down.png></td></tr></table>","87","1","","","","","","","","","","","","","","","","","",""
"","html-keyboard-response",33,219832,"0.0-2.8-1.8",55,20,"f",1664215187303,750,"q","q","Only if I get the answer right","You win money","A fixed time limit",5,FALSE,"I took a few seconds break between every run (drinking water, taking a few steps around the room, breathing in and out) because when I didn't, all the shapes started blending together.","none",1,0,1,3,1,3,0,3,0,0,1,2,0,0,1,0,0,0,3,0,0,1,3,1,0,0,0,0,0,1,0,3,0,1,0,1,0,0,0,0,1,1,1,0,1,3,2,2,1,0,3,0,1,3,3,2,0,1,3,2,1,0,4,"null","<div style=""font-size:75px;""><b>Correct</b></div>","null","","","","","","","","","","","","","","","","","","",""
"","html-keyboard-response",34,220837,"0.0-2.8-2.8",55,20,"f",1664215187303,750,"q","q","Only if I get the answer right","You win money","A fixed time limit",5,FALSE,"I took a few seconds break between every run (drinking water, taking a few steps around the room, breathing in and out) because when I didn't, all the shapes started blending together.","none",1,0,1,3,1,3,0,3,0,0,1,2,0,0,1,0,0,0,3,0,0,1,3,1,0,0,0,0,0,1,0,3,0,1,0,1,0,0,0,0,1,1,1,0,1,3,2,2,1,0,3,0,1,3,3,2,0,1,3,2,1,0,4,"613.0999999642372","","w","","true","practice","8","down","up","1","w","1","0","1664215408562","","","","","","","",""
"","html-keyboard-response",35,221214,"0.0-2.9-0.9",55,20,"f",1664215187303,750,"q","q","Only if I get the answer right","You win money","A fixed time limit",5,FALSE,"I took a few seconds break between every run (drinking water, taking a few steps around the room, breathing in and out) because when I didn't, all the shapes started blending together.","none",1,0,1,3,1,3,0,3,0,0,1,2,0,0,1,0,0,0,3,0,0,1,3,1,0,0,0,0,0,1,0,3,0,1,0,1,0,0,0,0,1,1,1,0,1,3,2,2,1,0,3,0,1,3,3,2,0,1,3,2,1,0,4,"377.30000001192093","<br><br><br><br><table><tr><td><img src=static/images/oddball_down.png></td><td><img src=static/images/oddball_up.png></td><td><img src=static/images/oddball_down.png></td></tr></table>","81","1","","","","","","","","","","","","","","","","","",""
"","html-keyboard-response",36,223724,"0.0-2.9-1.9",55,20,"f",1664215187303,750,"q","q","Only if I get the answer right","You win money","A fixed time limit",5,FALSE,"I took a few seconds break between every run (drinking water, taking a few steps around the room, breathing in and out) because when I didn't, all the shapes started blending together.","none",1,0,1,3,1,3,0,3,0,0,1,2,0,0,1,0,0,0,3,0,0,1,3,1,0,0,0,0,0,1,0,3,0,1,0,1,0,0,0,0,1,1,1,0,1,3,2,2,1,0,3,0,1,3,3,2,0,1,3,2,1,0,4,"null","<div style=""font-size:75px;""><b>Incorrect</b></div><br><br><div font-size:50px;"">The middle shape was the odd one out, so you needed to press W!</div>","null","","","","","","","","","","","","","","","","","","",""
"","html-keyboard-response",37,224727,"0.0-2.9-2.9",55,20,"f",1664215187303,750,"q","q","Only if I get the answer right","You win money","A fixed time limit",5,FALSE,"I took a few seconds break between every run (drinking water, taking a few steps around the room, breathing in and out) because when I didn't, all the shapes started blending together.","none",1,0,1,3,1,3,0,3,0,0,1,2,0,0,1,0,0,0,3,0,0,1,3,1,0,0,0,0,0,1,0,3,0,1,0,1,0,0,0,0,1,1,1,0,1,3,2,2,1,0,3,0,1,3,3,2,0,1,3,2,1,0,4,"377.30000001192093","","q","","true","practice","9","down","up","1","w","0","0","1664215412452","","","","","","","",""
"","html-keyboard-response",38,225398,"0.0-2.10-0.10",55,20,"f",1664215187303,750,"q","q","Only if I get the answer right","You win money","A fixed time limit",5,FALSE,"I took a few seconds break between every run (drinking water, taking a few steps around the room, breathing in and out) because when I didn't, all the shapes started blending together.","none",1,0,1,3,1,3,0,3,0,0,1,2,0,0,1,0,0,0,3,0,0,1,3,1,0,0,0,0,0,1,0,3,0,1,0,1,0,0,0,0,1,1,1,0,1,3,2,2,1,0,3,0,1,3,3,2,0,1,3,2,1,0,4,"670.6000000238419","<br><br><br><br><table><tr><td><img src=static/images/oddball_up.png></td><td><img src=static/images/oddball_up.png></td><td><img src=static/images/oddball_down.png></td></tr></table>","69","1","","","","","","","","","","","","","","","","","",""
"","html-keyboard-response",39,227913,"0.0-2.10-1.10",55,20,"f",1664215187303,750,"q","q","Only if I get the answer right","You win money","A fixed time limit",5,FALSE,"I took a few seconds break between every run (drinking water, taking a few steps around the room, breathing in and out) because when I didn't, all the shapes started blending together.","none",1,0,1,3,1,3,0,3,0,0,1,2,0,0,1,0,0,0,3,0,0,1,3,1,0,0,0,0,0,1,0,3,0,1,0,1,0,0,0,0,1,1,1,0,1,3,2,2,1,0,3,0,1,3,3,2,0,1,3,2,1,0,4,"null","<div style=""font-size:75px;""><b>Correct</b></div>","null","","","","","","","","","","","","","","","","","","",""
"","html-keyboard-response",40,228926,"0.0-2.10-2.10",55,20,"f",1664215187303,750,"q","q","Only if I get the answer right","You win money","A fixed time limit",5,FALSE,"I took a few seconds break between every run (drinking water, taking a few steps around the room, breathing in and out) because when I didn't, all the shapes started blending together.","none",1,0,1,3,1,3,0,3,0,0,1,2,0,0,1,0,0,0,3,0,0,1,3,1,0,0,0,0,0,1,0,3,0,1,0,1,0,0,0,0,1,1,1,0,1,3,2,2,1,0,3,0,1,3,3,2,0,1,3,2,1,0,4,"670.6000000238419","","e","","true","practice","10","up","down","2","e","1","0","1664215416651","","","","","","","",""
"","html-keyboard-response",41,229518,"0.0-2.11-0.11",55,20,"f",1664215187303,750,"q","q","Only if I get the answer right","You win money","A fixed time limit",5,FALSE,"I took a few seconds break between every run (drinking water, taking a few steps around the room, breathing in and out) because when I didn't, all the shapes started blending together.","none",1,0,1,3,1,3,0,3,0,0,1,2,0,0,1,0,0,0,3,0,0,1,3,1,0,0,0,0,0,1,0,3,0,1,0,1,0,0,0,0,1,1,1,0,1,3,2,2,1,0,3,0,1,3,3,2,0,1,3,2,1,0,4,"591.4000000357628","<br><br><br><br><table><tr><td><img src=static/images/oddball_down.png></td><td><img src=static/images/oddball_down.png></td><td><img src=static/images/oddball_up.png></td></tr></table>","69","1","","","","","","","","","","","","","","","","","",""
"","html-keyboard-response",42,232021,"0.0-2.11-1.11",55,20,"f",1664215187303,750,"q","q","Only if I get the answer right","You win money","A fixed time limit",5,FALSE,"I took a few seconds break between every run (drinking water, taking a few steps around the room, breathing in and out) because when I didn't, all the shapes started blending together.","none",1,0,1,3,1,3,0,3,0,0,1,2,0,0,1,0,0,0,3,0,0,1,3,1,0,0,0,0,0,1,0,3,0,1,0,1,0,0,0,0,1,1,1,0,1,3,2,2,1,0,3,0,1,3,3,2,0,1,3,2,1,0,4,"null","<div style=""font-size:75px;""><b>Correct</b></div>","null","","","","","","","","","","","","","","","","","","",""
"","html-keyboard-response",43,233026,"0.0-2.11-2.11",55,20,"f",1664215187303,750,"q","q","Only if I get the answer right","You win money","A fixed time limit",5,FALSE,"I took a few seconds break between every run (drinking water, taking a few steps around the room, breathing in and out) because when I didn't, all the shapes started blending together.","none",1,0,1,3,1,3,0,3,0,0,1,2,0,0,1,0,0,0,3,0,0,1,3,1,0,0,0,0,0,1,0,3,0,1,0,1,0,0,0,0,1,1,1,0,1,3,2,2,1,0,3,0,1,3,3,2,0,1,3,2,1,0,4,"591.4000000357628","","e","","true","practice","11","down","up","2","e","1","0","1664215420752","","","","","","","",""
"","html-keyboard-response",44,233582,"0.0-2.12-0.12",55,20,"f",1664215187303,750,"q","q","Only if I get the answer right","You win money","A fixed time limit",5,FALSE,"I took a few seconds break between every run (drinking water, taking a few steps around the room, breathing in and out) because when I didn't, all the shapes started blending together.","none",1,0,1,3,1,3,0,3,0,0,1,2,0,0,1,0,0,0,3,0,0,1,3,1,0,0,0,0,0,1,0,3,0,1,0,1,0,0,0,0,1,1,1,0,1,3,2,2,1,0,3,0,1,3,3,2,0,1,3,2,1,0,4,"555.3000000119209","<br><br><br><br><table><tr><td><img src=static/images/oddball_up.png></td><td><img src=static/images/oddball_down.png></td><td><img src=static/images/oddball_up.png></td></tr></table>","81","1","","","","","","","","","","","","","","","","","",""
"","html-keyboard-response",45,236095,"0.0-2.12-1.12",55,20,"f",1664215187303,750,"q","q","Only if I get the answer right","You win money","A fixed time limit",5,FALSE,"I took a few seconds break between every run (drinking water, taking a few steps around the room, breathing in and out) because when I didn't, all the shapes started blending together.","none",1,0,1,3,1,3,0,3,0,0,1,2,0,0,1,0,0,0,3,0,0,1,3,1,0,0,0,0,0,1,0,3,0,1,0,1,0,0,0,0,1,1,1,0,1,3,2,2,1,0,3,0,1,3,3,2,0,1,3,2,1,0,4,"null","<div style=""font-size:75px;""><b>Incorrect</b></div><br><br><div font-size:50px;"">The middle shape was the odd one out, so you needed to press W!</div>","null","","","","","","","","","","","","","","","","","","",""
"","html-keyboard-response",46,237101,"0.0-2.12-2.12",55,20,"f",1664215187303,750,"q","q","Only if I get the answer right","You win money","A fixed time limit",5,FALSE,"I took a few seconds break between every run (drinking water, taking a few steps around the room, breathing in and out) because when I didn't, all the shapes started blending together.","none",1,0,1,3,1,3,0,3,0,0,1,2,0,0,1,0,0,0,3,0,0,1,3,1,0,0,0,0,0,1,0,3,0,1,0,1,0,0,0,0,1,1,1,0,1,3,2,2,1,0,3,0,1,3,3,2,0,1,3,2,1,0,4,"555.3000000119209","","q","","true","practice","12","up","down","1","w","0","0","1664215424826","","","","","","","",""
"","html-keyboard-response",47,237750,"0.0-2.13-0.13",55,20,"f",1664215187303,750,"q","q","Only if I get the answer right","You win money","A fixed time limit",5,FALSE,"I took a few seconds break between every run (drinking water, taking a few steps around the room, breathing in and out) because when I didn't, all the shapes started blending together.","none",1,0,1,3,1,3,0,3,0,0,1,2,0,0,1,0,0,0,3,0,0,1,3,1,0,0,0,0,0,1,0,3,0,1,0,1,0,0,0,0,1,1,1,0,1,3,2,2,1,0,3,0,1,3,3,2,0,1,3,2,1,0,4,"648.6000000238419","<br><br><br><br><table><tr><td><img src=static/images/oddball_down.png></td><td><img src=static/images/oddball_up.png></td><td><img src=static/images/oddball_down.png></td></tr></table>","87","1","","","","","","","","","","","","","","","","","",""
"","html-keyboard-response",48,240253,"0.0-2.13-1.13",55,20,"f",1664215187303,750,"q","q","Only if I get the answer right","You win money","A fixed time limit",5,FALSE,"I took a few seconds break between every run (drinking water, taking a few steps around the room, breathing in and out) because when I didn't, all the shapes started blending together.","none",1,0,1,3,1,3,0,3,0,0,1,2,0,0,1,0,0,0,3,0,0,1,3,1,0,0,0,0,0,1,0,3,0,1,0,1,0,0,0,0,1,1,1,0,1,3,2,2,1,0,3,0,1,3,3,2,0,1,3,2,1,0,4,"null","<div style=""font-size:75px;""><b>Correct</b></div>","null","","","","","","","","","","","","","","","","","","",""
"","html-keyboard-response",49,241258,"0.0-2.13-2.13",55,20,"f",1664215187303,750,"q","q","Only if I get the answer right","You win money","A fixed time limit",5,FALSE,"I took a few seconds break between every run (drinking water, taking a few steps around the room, breathing in and out) because when I didn't, all the shapes started blending together.","none",1,0,1,3,1,3,0,3,0,0,1,2,0,0,1,0,0,0,3,0,0,1,3,1,0,0,0,0,0,1,0,3,0,1,0,1,0,0,0,0,1,1,1,0,1,3,2,2,1,0,3,0,1,3,3,2,0,1,3,2,1,0,4,"648.6000000238419","","w","","true","practice","13","down","up","1","w","1","0","1664215428983","","","","","","","",""
"","html-keyboard-response",50,241926,"0.0-2.14-0.14",55,20,"f",1664215187303,750,"q","q","Only if I get the answer right","You win money","A fixed time limit",5,FALSE,"I took a few seconds break between every run (drinking water, taking a few steps around the room, breathing in and out) because when I didn't, all the shapes started blending together.","none",1,0,1,3,1,3,0,3,0,0,1,2,0,0,1,0,0,0,3,0,0,1,3,1,0,0,0,0,0,1,0,3,0,1,0,1,0,0,0,0,1,1,1,0,1,3,2,2,1,0,3,0,1,3,3,2,0,1,3,2,1,0,4,"667.8000000119209","<br><br><br><br><table><tr><td><img src=static/images/oddball_down.png></td><td><img src=static/images/oddball_up.png></td><td><img src=static/images/oddball_down.png></td></tr></table>","81","1","","","","","","","","","","","","","","","","","",""
"","html-keyboard-response",51,244431,"0.0-2.14-1.14",55,20,"f",1664215187303,750,"q","q","Only if I get the answer right","You win money","A fixed time limit",5,FALSE,"I took a few seconds break between every run (drinking water, taking a few steps around the room, breathing in and out) because when I didn't, all the shapes started blending together.","none",1,0,1,3,1,3,0,3,0,0,1,2,0,0,1,0,0,0,3,0,0,1,3,1,0,0,0,0,0,1,0,3,0,1,0,1,0,0,0,0,1,1,1,0,1,3,2,2,1,0,3,0,1,3,3,2,0,1,3,2,1,0,4,"null","<div style=""font-size:75px;""><b>Incorrect</b></div><br><br><div font-size:50px;"">The middle shape was the odd one out, so you needed to press W!</div>","null","","","","","","","","","","","","","","","","","","",""
"","html-keyboard-response",52,245433,"0.0-2.14-2.14",55,20,"f",1664215187303,750,"q","q","Only if I get the answer right","You win money","A fixed time limit",5,FALSE,"I took a few seconds break between every run (drinking water, taking a few steps around the room, breathing in and out) because when I didn't, all the shapes started blending together.","none",1,0,1,3,1,3,0,3,0,0,1,2,0,0,1,0,0,0,3,0,0,1,3,1,0,0,0,0,0,1,0,3,0,1,0,1,0,0,0,0,1,1,1,0,1,3,2,2,1,0,3,0,1,3,3,2,0,1,3,2,1,0,4,"667.8000000119209","","q","","true","practice","14","down","up","1","w","0","0","1664215433158","","","","","","","",""
"","html-keyboard-response",53,246062,"0.0-2.15-0.15",55,20,"f",1664215187303,750,"q","q","Only if I get the answer right","You win money","A fixed time limit",5,FALSE,"I took a few seconds break between every run (drinking water, taking a few steps around the room, breathing in and out) because when I didn't, all the shapes started blending together.","none",1,0,1,3,1,3,0,3,0,0,1,2,0,0,1,0,0,0,3,0,0,1,3,1,0,0,0,0,0,1,0,3,0,1,0,1,0,0,0,0,1,1,1,0,1,3,2,2,1,0,3,0,1,3,3,2,0,1,3,2,1,0,4,"628.8000000119209","<br><br><br><br><table><tr><td><img src=static/images/oddball_down.png></td><td><img src=static/images/oddball_down.png></td><td><img src=static/images/oddball_up.png></td></tr></table>","69","1","","","","","","","","","","","","","","","","","",""
"","html-keyboard-response",54,248567,"0.0-2.15-1.15",55,20,"f",1664215187303,750,"q","q","Only if I get the answer right","You win money","A fixed time limit",5,FALSE,"I took a few seconds break between every run (drinking water, taking a few steps around the room, breathing in and out) because when I didn't, all the shapes started blending together.","none",1,0,1,3,1,3,0,3,0,0,1,2,0,0,1,0,0,0,3,0,0,1,3,1,0,0,0,0,0,1,0,3,0,1,0,1,0,0,0,0,1,1,1,0,1,3,2,2,1,0,3,0,1,3,3,2,0,1,3,2,1,0,4,"null","<div style=""font-size:75px;""><b>Correct</b></div>","null","","","","","","","","","","","","","","","","","","",""
"","html-keyboard-response",55,249578,"0.0-2.15-2.15",55,20,"f",1664215187303,750,"q","q","Only if I get the answer right","You win money","A fixed time limit",5,FALSE,"I took a few seconds break between every run (drinking water, taking a few steps around the room, breathing in and out) because when I didn't, all the shapes started blending together.","none",1,0,1,3,1,3,0,3,0,0,1,2,0,0,1,0,0,0,3,0,0,1,3,1,0,0,0,0,0,1,0,3,0,1,0,1,0,0,0,0,1,1,1,0,1,3,2,2,1,0,3,0,1,3,3,2,0,1,3,2,1,0,4,"628.8000000119209","","e","","true","practice","15","down","up","2","e","1","0","1664215437303","","","","","","","",""
"","html-keyboard-response",56,250246,"0.0-2.16-0.16",55,20,"f",1664215187303,750,"q","q","Only if I get the answer right","You win money","A fixed time limit",5,FALSE,"I took a few seconds break between every run (drinking water, taking a few steps around the room, breathing in and out) because when I didn't, all the shapes started blending together.","none",1,0,1,3,1,3,0,3,0,0,1,2,0,0,1,0,0,0,3,0,0,1,3,1,0,0,0,0,0,1,0,3,0,1,0,1,0,0,0,0,1,1,1,0,1,3,2,2,1,0,3,0,1,3,3,2,0,1,3,2,1,0,4,"668.0999999642372","<br><br><br><br><table><tr><td><img src=static/images/oddball_up.png></td><td><img src=static/images/oddball_down.png></td><td><img src=static/images/oddball_up.png></td></tr></table>","81","1","","","","","","","","","","","","","","","","","",""
"","html-keyboard-response",57,252752,"0.0-2.16-1.16",55,20,"f",1664215187303,750,"q","q","Only if I get the answer right","You win money","A fixed time limit",5,FALSE,"I took a few seconds break between every run (drinking water, taking a few steps around the room, breathing in and out) because when I didn't, all the shapes started blending together.","none",1,0,1,3,1,3,0,3,0,0,1,2,0,0,1,0,0,0,3,0,0,1,3,1,0,0,0,0,0,1,0,3,0,1,0,1,0,0,0,0,1,1,1,0,1,3,2,2,1,0,3,0,1,3,3,2,0,1,3,2,1,0,4,"null","<div style=""font-size:75px;""><b>Incorrect</b></div><br><br><div font-size:50px;"">The middle shape was the odd one out, so you needed to press W!</div>","null","","","","","","","","","","","","","","","","","","",""
"","html-keyboard-response",58,253764,"0.0-2.16-2.16",55,20,"f",1664215187303,750,"q","q","Only if I get the answer right","You win money","A fixed time limit",5,FALSE,"I took a few seconds break between every run (drinking water, taking a few steps around the room, breathing in and out) because when I didn't, all the shapes started blending together.","none",1,0,1,3,1,3,0,3,0,0,1,2,0,0,1,0,0,0,3,0,0,1,3,1,0,0,0,0,0,1,0,3,0,1,0,1,0,0,0,0,1,1,1,0,1,3,2,2,1,0,3,0,1,3,3,2,0,1,3,2,1,0,4,"668.0999999642372","","q","","true","practice","16","up","down","1","w","0","0","1664215441489","","","","","","","",""
"","html-keyboard-response",59,254462,"0.0-2.17-0.17",55,20,"f",1664215187303,750,"q","q","Only if I get the answer right","You win money","A fixed time limit",5,FALSE,"I took a few seconds break between every run (drinking water, taking a few steps around the room, breathing in and out) because when I didn't, all the shapes started blending together.","none",1,0,1,3,1,3,0,3,0,0,1,2,0,0,1,0,0,0,3,0,0,1,3,1,0,0,0,0,0,1,0,3,0,1,0,1,0,0,0,0,1,1,1,0,1,3,2,2,1,0,3,0,1,3,3,2,0,1,3,2,1,0,4,"698.0999999642372","<br><br><br><br><table><tr><td><img src=static/images/oddball_up.png></td><td><img src=static/images/oddball_down.png></td><td><img src=static/images/oddball_down.png></td></tr></table>","81","1","","","","","","","","","","","","","","","","","",""
"","html-keyboard-response",60,256967,"0.0-2.17-1.17",55,20,"f",1664215187303,750,"q","q","Only if I get the answer right","You win money","A fixed time limit",5,FALSE,"I took a few seconds break between every run (drinking water, taking a few steps around the room, breathing in and out) because when I didn't, all the shapes started blending together.","none",1,0,1,3,1,3,0,3,0,0,1,2,0,0,1,0,0,0,3,0,0,1,3,1,0,0,0,0,0,1,0,3,0,1,0,1,0,0,0,0,1,1,1,0,1,3,2,2,1,0,3,0,1,3,3,2,0,1,3,2,1,0,4,"null","<div style=""font-size:75px;""><b>Correct</b></div>","null","","","","","","","","","","","","","","","","","","",""
"","html-keyboard-response",61,257972,"0.0-2.17-2.17",55,20,"f",1664215187303,750,"q","q","Only if I get the answer right","You win money","A fixed time limit",5,FALSE,"I took a few seconds break between every run (drinking water, taking a few steps around the room, breathing in and out) because when I didn't, all the shapes started blending together.","none",1,0,1,3,1,3,0,3,0,0,1,2,0,0,1,0,0,0,3,0,0,1,3,1,0,0,0,0,0,1,0,3,0,1,0,1,0,0,0,0,1,1,1,0,1,3,2,2,1,0,3,0,1,3,3,2,0,1,3,2,1,0,4,"698.0999999642372","","q","","true","practice","17","down","up","0","q","1","0","1664215445697","","","","","","","",""
"","html-keyboard-response",62,258694,"0.0-2.18-0.18",55,20,"f",1664215187303,750,"q","q","Only if I get the answer right","You win money","A fixed time limit",5,FALSE,"I took a few seconds break between every run (drinking water, taking a few steps around the room, breathing in and out) because when I didn't, all the shapes started blending together.","none",1,0,1,3,1,3,0,3,0,0,1,2,0,0,1,0,0,0,3,0,0,1,3,1,0,0,0,0,0,1,0,3,0,1,0,1,0,0,0,0,1,1,1,0,1,3,2,2,1,0,3,0,1,3,3,2,0,1,3,2,1,0,4,"721.8000000119209","<br><br><br><br><table><tr><td><img src=static/images/oddball_up.png></td><td><img src=static/images/oddball_up.png></td><td><img src=static/images/oddball_down.png></td></tr></table>","69","1","","","","","","","","","","","","","","","","","",""
"","html-keyboard-response",63,261208,"0.0-2.18-1.18",55,20,"f",1664215187303,750,"q","q","Only if I get the answer right","You win money","A fixed time limit",5,FALSE,"I took a few seconds break between every run (drinking water, taking a few steps around the room, breathing in and out) because when I didn't, all the shapes started blending together.","none",1,0,1,3,1,3,0,3,0,0,1,2,0,0,1,0,0,0,3,0,0,1,3,1,0,0,0,0,0,1,0,3,0,1,0,1,0,0,0,0,1,1,1,0,1,3,2,2,1,0,3,0,1,3,3,2,0,1,3,2,1,0,4,"null","<div style=""font-size:75px;""><b>Correct</b></div>","null","","","","","","","","","","","","","","","","","","",""
"","html-keyboard-response",64,262214,"0.0-2.18-2.18",55,20,"f",1664215187303,750,"q","q","Only if I get the answer right","You win money","A fixed time limit",5,FALSE,"I took a few seconds break between every run (drinking water, taking a few steps around the room, breathing in and out) because when I didn't, all the shapes started blending together.","none",1,0,1,3,1,3,0,3,0,0,1,2,0,0,1,0,0,0,3,0,0,1,3,1,0,0,0,0,0,1,0,3,0,1,0,1,0,0,0,0,1,1,1,0,1,3,2,2,1,0,3,0,1,3,3,2,0,1,3,2,1,0,4,"721.8000000119209","","e","","true","practice","18","up","down","2","e","1","0","1664215449939","","","","","","","",""
"","html-keyboard-response",65,262918,"0.0-2.19-0.19",55,20,"f",1664215187303,750,"q","q","Only if I get the answer right","You win money","A fixed time limit",5,FALSE,"I took a few seconds break between every run (drinking water, taking a few steps around the room, breathing in and out) because when I didn't, all the shapes started blending together.","none",1,0,1,3,1,3,0,3,0,0,1,2,0,0,1,0,0,0,3,0,0,1,3,1,0,0,0,0,0,1,0,3,0,1,0,1,0,0,0,0,1,1,1,0,1,3,2,2,1,0,3,0,1,3,3,2,0,1,3,2,1,0,4,"703.3000000119209","<br><br><br><br><table><tr><td><img src=static/images/oddball_up.png></td><td><img src=static/images/oddball_up.png></td><td><img src=static/images/oddball_down.png></td></tr></table>","69","1","","","","","","","","","","","","","","","","","",""
"","html-keyboard-response",66,265421,"0.0-2.19-1.19",55,20,"f",1664215187303,750,"q","q","Only if I get the answer right","You win money","A fixed time limit",5,FALSE,"I took a few seconds break between every run (drinking water, taking a few steps around the room, breathing in and out) because when I didn't, all the shapes started blending together.","none",1,0,1,3,1,3,0,3,0,0,1,2,0,0,1,0,0,0,3,0,0,1,3,1,0,0,0,0,0,1,0,3,0,1,0,1,0,0,0,0,1,1,1,0,1,3,2,2,1,0,3,0,1,3,3,2,0,1,3,2,1,0,4,"null","<div style=""font-size:75px;""><b>Correct</b></div>","null","","","","","","","","","","","","","","","","","","",""
"","html-keyboard-response",67,266422,"0.0-2.19-2.19",55,20,"f",1664215187303,750,"q","q","Only if I get the answer right","You win money","A fixed time limit",5,FALSE,"I took a few seconds break between every run (drinking water, taking a few steps around the room, breathing in and out) because when I didn't, all the shapes started blending together.","none",1,0,1,3,1,3,0,3,0,0,1,2,0,0,1,0,0,0,3,0,0,1,3,1,0,0,0,0,0,1,0,3,0,1,0,1,0,0,0,0,1,1,1,0,1,3,2,2,1,0,3,0,1,3,3,2,0,1,3,2,1,0,4,"703.3000000119209","","e","","true","practice","19","up","down","2","e","1","0","1664215454147","","","","","","","",""
"","image-keyboard-response",68,378902,"0.0-3.0-0.0",55,20,"f",1664215187303,750,"q","q","Only if I get the answer right","You win money","A fixed time limit",5,FALSE,"I took a few seconds break between every run (drinking water, taking a few steps around the room, breathing in and out) because when I didn't, all the shapes started blending together.","none",1,0,1,3,1,3,0,3,0,0,1,2,0,0,1,0,0,0,3,0,0,1,3,1,0,0,0,0,0,1,0,3,0,1,0,1,0,0,0,0,1,1,1,0,1,3,2,2,1,0,3,0,1,3,3,2,0,1,3,2,1,0,4,"112488.10000002384","static/images/instructions/Slide8.png","39","","","","","","","","","","","","","","","","","","",""
"","image-keyboard-response",69,394574,"0.0-3.1-0.1",55,20,"f",1664215187303,750,"q","q","Only if I get the answer right","You win money","A fixed time limit",5,FALSE,"I took a few seconds break between every run (drinking water, taking a few steps around the room, breathing in and out) because when I didn't, all the shapes started blending together.","none",1,0,1,3,1,3,0,3,0,0,1,2,0,0,1,0,0,0,3,0,0,1,3,1,0,0,0,0,0,1,0,3,0,1,0,1,0,0,0,0,1,1,1,0,1,3,2,2,1,0,3,0,1,3,3,2,0,1,3,2,1,0,4,"15670.800000011921","static/images/instructions/Slide9.png","39","","","","","","","","","","","","","","","","","","",""
"","image-keyboard-response",70,405910,"0.0-3.2-0.2",55,20,"f",1664215187303,750,"q","q","Only if I get the answer right","You win money","A fixed time limit",5,FALSE,"I took a few seconds break between every run (drinking water, taking a few steps around the room, breathing in and out) because when I didn't, all the shapes started blending together.","none",1,0,1,3,1,3,0,3,0,0,1,2,0,0,1,0,0,0,3,0,0,1,3,1,0,0,0,0,0,1,0,3,0,1,0,1,0,0,0,0,1,1,1,0,1,3,2,2,1,0,3,0,1,3,3,2,0,1,3,2,1,0,4,"11335.300000011921","static/images/instructions/Slide10.png","39","","","","","","","","","","","","","","","","","","",""
"","image-keyboard-response",71,415398,"0.0-3.3-0.3",55,20,"f",1664215187303,750,"q","q","Only if I get the answer right","You win money","A fixed time limit",5,FALSE,"I took a few seconds break between every run (drinking water, taking a few steps around the room, breathing in and out) because when I didn't, all the shapes started blending together.","none",1,0,1,3,1,3,0,3,0,0,1,2,0,0,1,0,0,0,3,0,0,1,3,1,0,0,0,0,0,1,0,3,0,1,0,1,0,0,0,0,1,1,1,0,1,3,2,2,1,0,3,0,1,3,3,2,0,1,3,2,1,0,4,"9487.400000035763","static/images/instructions/Slide11.png","39","","","","","","","","","","","","","","","","","","",""
"","image-keyboard-response",72,420190,"0.0-3.4-0.4",55,20,"f",1664215187303,750,"q","q","Only if I get the answer right","You win money","A fixed time limit",5,FALSE,"I took a few seconds break between every run (drinking water, taking a few steps around the room, breathing in and out) because when I didn't, all the shapes started blending together.","none",1,0,1,3,1,3,0,3,0,0,1,2,0,0,1,0,0,0,3,0,0,1,3,1,0,0,0,0,0,1,0,3,0,1,0,1,0,0,0,0,1,1,1,0,1,3,2,2,1,0,3,0,1,3,3,2,0,1,3,2,1,0,4,"4791.199999988079","static/images/instructions/Slide12.png","39","","","","","","","","","","","","","","","","","","",""
"","image-keyboard-response",73,424582,"0.0-3.5-0.5",55,20,"f",1664215187303,750,"q","q","Only if I get the answer right","You win money","A fixed time limit",5,FALSE,"I took a few seconds break between every run (drinking water, taking a few steps around the room, breathing in and out) because when I didn't, all the shapes started blending together.","none",1,0,1,3,1,3,0,3,0,0,1,2,0,0,1,0,0,0,3,0,0,1,3,1,0,0,0,0,0,1,0,3,0,1,0,1,0,0,0,0,1,1,1,0,1,3,2,2,1,0,3,0,1,3,3,2,0,1,3,2,1,0,4,"4391.300000011921","static/images/instructions/Slide13.png","37","","","","","","","","","","","","","","","","","","",""
"","image-keyboard-response",74,425838,"0.0-3.6-0.6",55,20,"f",1664215187303,750,"q","q","Only if I get the answer right","You win money","A fixed time limit",5,FALSE,"I took a few seconds break between every run (drinking water, taking a few steps around the room, breathing in and out) because when I didn't, all the shapes started blending together.","none",1,0,1,3,1,3,0,3,0,0,1,2,0,0,1,0,0,0,3,0,0,1,3,1,0,0,0,0,0,1,0,3,0,1,0,1,0,0,0,0,1,1,1,0,1,3,2,2,1,0,3,0,1,3,3,2,0,1,3,2,1,0,4,"1255.300000011921","static/images/instructions/Slide12.png","39","","","","","","","","","","","","","","","","","","",""
"","image-keyboard-response",75,433158,"0.0-3.7-0.7",55,20,"f",1664215187303,750,"q","q","Only if I get the answer right","You win money","A fixed time limit",5,FALSE,"I took a few seconds break between every run (drinking water, taking a few steps around the room, breathing in and out) because when I didn't, all the shapes started blending together.","none",1,0,1,3,1,3,0,3,0,0,1,2,0,0,1,0,0,0,3,0,0,1,3,1,0,0,0,0,0,1,0,3,0,1,0,1,0,0,0,0,1,1,1,0,1,3,2,2,1,0,3,0,1,3,3,2,0,1,3,2,1,0,4,"7319.399999976158","static/images/instructions/Slide13.png","37","","","","","","","","","","","","","","","","","","",""
"","image-keyboard-response",76,436454,"0.0-3.8-0.8",55,20,"f",1664215187303,750,"q","q","Only if I get the answer right","You win money","A fixed time limit",5,FALSE,"I took a few seconds break between every run (drinking water, taking a few steps around the room, breathing in and out) because when I didn't, all the shapes started blending together.","none",1,0,1,3,1,3,0,3,0,0,1,2,0,0,1,0,0,0,3,0,0,1,3,1,0,0,0,0,0,1,0,3,0,1,0,1,0,0,0,0,1,1,1,0,1,3,2,2,1,0,3,0,1,3,3,2,0,1,3,2,1,0,4,"3295.300000011921","static/images/instructions/Slide12.png","39","","","","","","","","","","","","","","","","","","",""
"","image-keyboard-response",77,438598,"0.0-3.9-0.9",55,20,"f",1664215187303,750,"q","q","Only if I get the answer right","You win money","A fixed time limit",5,FALSE,"I took a few seconds break between every run (drinking water, taking a few steps around the room, breathing in and out) because when I didn't, all the shapes started blending together.","none",1,0,1,3,1,3,0,3,0,0,1,2,0,0,1,0,0,0,3,0,0,1,3,1,0,0,0,0,0,1,0,3,0,1,0,1,0,0,0,0,1,1,1,0,1,3,2,2,1,0,3,0,1,3,3,2,0,1,3,2,1,0,4,"2143.5","static/images/instructions/Slide13.png","39","","","","","","","","","","","","","","","","","","",""
"","image-keyboard-response",78,445500,"0.0-3.10-0.10",55,20,"f",1664215187303,750,"q","q","Only if I get the answer right","You win money","A fixed time limit",5,FALSE,"I took a few seconds break between every run (drinking water, taking a few steps around the room, breathing in and out) because when I didn't, all the shapes started blending together.","none",1,0,1,3,1,3,0,3,0,0,1,2,0,0,1,0,0,0,3,0,0,1,3,1,0,0,0,0,0,1,0,3,0,1,0,1,0,0,0,0,1,1,1,0,1,3,2,2,1,0,3,0,1,3,3,2,0,1,3,2,1,0,4,"6895.300000011921","static/images/instructions/Slide14.png","39","","","","","","","","","","","","","","","","","","",""
"","image-keyboard-response",79,453212,"0.0-3.11-0.11",55,20,"f",1664215187303,750,"q","q","Only if I get the answer right","You win money","A fixed time limit",5,FALSE,"I took a few seconds break between every run (drinking water, taking a few steps around the room, breathing in and out) because when I didn't, all the shapes started blending together.","none",1,0,1,3,1,3,0,3,0,0,1,2,0,0,1,0,0,0,3,0,0,1,3,1,0,0,0,0,0,1,0,3,0,1,0,1,0,0,0,0,1,1,1,0,1,3,2,2,1,0,3,0,1,3,3,2,0,1,3,2,1,0,4,"7711.5","static/images/instructions/Slide15.png","39","","","","","","","","","","","","","","","","","","",""
"","image-keyboard-response",80,467956,"0.0-3.12-0.12",55,20,"f",1664215187303,750,"q","q","Only if I get the answer right","You win money","A fixed time limit",5,FALSE,"I took a few seconds break between every run (drinking water, taking a few steps around the room, breathing in and out) because when I didn't, all the shapes started blending together.","none",1,0,1,3,1,3,0,3,0,0,1,2,0,0,1,0,0,0,3,0,0,1,3,1,0,0,0,0,0,1,0,3,0,1,0,1,0,0,0,0,1,1,1,0,1,3,2,2,1,0,3,0,1,3,3,2,0,1,3,2,1,0,4,"14743.5","static/images/instructions/Slide16.png","39","","","","","","","","","","","","","","","","","","",""
"","image-keyboard-response",81,475092,"0.0-3.13-0.13",55,20,"f",1664215187303,750,"q","q","Only if I get the answer right","You win money","A fixed time limit",5,FALSE,"I took a few seconds break between every run (drinking water, taking a few steps around the room, breathing in and out) because when I didn't, all the shapes started blending together.","none",1,0,1,3,1,3,0,3,0,0,1,2,0,0,1,0,0,0,3,0,0,1,3,1,0,0,0,0,0,1,0,3,0,1,0,1,0,0,0,0,1,1,1,0,1,3,2,2,1,0,3,0,1,3,3,2,0,1,3,2,1,0,4,"7135.300000011921","static/images/instructions/Slide17.png","37","","","","","","","","","","","","","","","","","","",""
"","image-keyboard-response",82,504964,"0.0-3.14-0.14",55,20,"f",1664215187303,750,"q","q","Only if I get the answer right","You win money","A fixed time limit",5,FALSE,"I took a few seconds break between every run (drinking water, taking a few steps around the room, breathing in and out) because when I didn't, all the shapes started blending together.","none",1,0,1,3,1,3,0,3,0,0,1,2,0,0,1,0,0,0,3,0,0,1,3,1,0,0,0,0,0,1,0,3,0,1,0,1,0,0,0,0,1,1,1,0,1,3,2,2,1,0,3,0,1,3,3,2,0,1,3,2,1,0,4,"29871.30000001192","static/images/instructions/Slide16.png","39","","","","","","","","","","","","","","","","","","",""
"","image-keyboard-response",83,505660,"0.0-3.15-0.15",55,20,"f",1664215187303,750,"q","q","Only if I get the answer right","You win money","A fixed time limit",5,FALSE,"I took a few seconds break between every run (drinking water, taking a few steps around the room, breathing in and out) because when I didn't, all the shapes started blending together.","none",1,0,1,3,1,3,0,3,0,0,1,2,0,0,1,0,0,0,3,0,0,1,3,1,0,0,0,0,0,1,0,3,0,1,0,1,0,0,0,0,1,1,1,0,1,3,2,2,1,0,3,0,1,3,3,2,0,1,3,2,1,0,4,"703.3999999761581","static/images/instructions/Slide17.png","39","","","","","","","","","","","","","","","","","","",""
"","survey-multi-choice",84,560605,"0.0-4.0",55,20,"f",1664215187303,750,"q","q","Only if I get the answer right","You win money","A fixed time limit",5,FALSE,"I took a few seconds break between every run (drinking water, taking a few steps around the room, breathing in and out) because when I didn't, all the shapes started blending together.","none",1,0,1,3,1,3,0,3,0,0,1,2,0,0,1,0,0,0,3,0,0,1,3,1,0,0,0,0,0,1,0,3,0,1,0,1,0,0,0,0,1,1,1,0,1,3,2,2,1,0,3,0,1,3,3,2,0,1,3,2,1,0,4,"54943.19999998808","","","","","","","","","","","","","","{""q1"":""q"",""q2"":""q"",""q3"":""Only if I get the answer right"",""q4"":""You win money"",""q5"":""A fixed time limit""}","[2,0,3,4,1]","","","","","",""
"","image-keyboard-response",85,570254,"0.0-5.0-0.0",55,20,"f",1664215187303,750,"q","q","Only if I get the answer right","You win money","A fixed time limit",5,FALSE,"I took a few seconds break between every run (drinking water, taking a few steps around the room, breathing in and out) because when I didn't, all the shapes started blending together.","none",1,0,1,3,1,3,0,3,0,0,1,2,0,0,1,0,0,0,3,0,0,1,3,1,0,0,0,0,0,1,0,3,0,1,0,1,0,0,0,0,1,1,1,0,1,3,2,2,1,0,3,0,1,3,3,2,0,1,3,2,1,0,4,"9638.099999964237","static/images/instructions/Slide18.png","39","","","","","","","","","","","","","","","","","","",""
"","html-keyboard-response",86,571263,"0.0-6.0-0.0-0.0",55,20,"f",1664215187303,750,"q","q","Only if I get the answer right","You win money","A fixed time limit",5,FALSE,"I took a few seconds break between every run (drinking water, taking a few steps around the room, breathing in and out) because when I didn't, all the shapes started blending together.","none",1,0,1,3,1,3,0,3,0,0,1,2,0,0,1,0,0,0,3,0,0,1,3,1,0,0,0,0,0,1,0,3,0,1,0,1,0,0,0,0,1,1,1,0,1,3,2,2,1,0,3,0,1,3,3,2,0,1,3,2,1,0,4,"null","<div style=""font-size:75px;"">3</div>","null","","","","","","","","","","","","","","","","","","",""
"","html-keyboard-response",87,572278,"0.0-6.0-0.1-0.1",55,20,"f",1664215187303,750,"q","q","Only if I get the answer right","You win money","A fixed time limit",5,FALSE,"I took a few seconds break between every run (drinking water, taking a few steps around the room, breathing in and out) because when I didn't, all the shapes started blending together.","none",1,0,1,3,1,3,0,3,0,0,1,2,0,0,1,0,0,0,3,0,0,1,3,1,0,0,0,0,0,1,0,3,0,1,0,1,0,0,0,0,1,1,1,0,1,3,2,2,1,0,3,0,1,3,3,2,0,1,3,2,1,0,4,"null","<div style=""font-size:75px;"">2</div>","null","","","","","","","","","","","","","","","","","","",""
"","html-keyboard-response",88,573282,"0.0-6.0-0.2-0.2",55,20,"f",1664215187303,750,"q","q","Only if I get the answer right","You win money","A fixed time limit",5,FALSE,"I took a few seconds break between every run (drinking water, taking a few steps around the room, breathing in and out) because when I didn't, all the shapes started blending together.","none",1,0,1,3,1,3,0,3,0,0,1,2,0,0,1,0,0,0,3,0,0,1,3,1,0,0,0,0,0,1,0,3,0,1,0,1,0,0,0,0,1,1,1,0,1,3,2,2,1,0,3,0,1,3,3,2,0,1,3,2,1,0,4,"null","<div style=""font-size:75px;"">1</div>","null","","","","","","","","","","","","","","","","","","",""
"","html-keyboard-response",89,574030,"0.0-6.0-1.0-0.0",55,20,"f",1664215187303,750,"q","q","Only if I get the answer right","You win money","A fixed time limit",5,FALSE,"I took a few seconds break between every run (drinking water, taking a few steps around the room, breathing in and out) because when I didn't, all the shapes started blending together.","none",1,0,1,3,1,3,0,3,0,0,1,2,0,0,1,0,0,0,3,0,0,1,3,1,0,0,0,0,0,1,0,3,0,1,0,1,0,0,0,0,1,1,1,0,1,3,2,2,1,0,3,0,1,3,3,2,0,1,3,2,1,0,4,"745.0999999642372","<br><br><br><br><table><tr><td><img src=static/images/oddball_up.png></td><td><img src=static/images/oddball_down.png></td><td><img src=static/images/oddball_up.png></td></tr></table>","87","1","","","","","","","","","","","","","","","","","",""
"","html-keyboard-response",90,574149.378837599,"0.0-6.0-1.0-1.0",55,20,"f",1664215187303,750,"q","q","Only if I get the answer right","You win money","A fixed time limit",5,FALSE,"I took a few seconds break between every run (drinking water, taking a few steps around the room, breathing in and out) because when I didn't, all the shapes started blending together.","none",1,0,1,3,1,3,0,3,0,0,1,2,0,0,1,0,0,0,3,0,0,1,3,1,0,0,0,0,0,1,0,3,0,1,0,1,0,0,0,0,1,1,1,0,1,3,2,2,1,0,3,0,1,3,3,2,0,1,3,2,1,0,4,"747.478837562916","","w","","true","0","0","up","down","1","w","1","0","1664215761874.38","","","true","60","0","0","0.02","null"
"","html-keyboard-response",91,574901,"0.0-6.0-1.1-0.1",55,20,"f",1664215187303,750,"q","q","Only if I get the answer right","You win money","A fixed time limit",5,FALSE,"I took a few seconds break between every run (drinking water, taking a few steps around the room, breathing in and out) because when I didn't, all the shapes started blending together.","none",1,0,1,3,1,3,0,3,0,0,1,2,0,0,1,0,0,0,3,0,0,1,3,1,0,0,0,0,0,1,0,3,0,1,0,1,0,0,0,0,1,1,1,0,1,3,2,2,1,0,3,0,1,3,3,2,0,1,3,2,1,0,4,"null","<br><br><br><br><table><tr><td><img src=static/images/oddball_up.png></td><td><img src=static/images/oddball_down.png></td><td><img src=static/images/oddball_down.png></td></tr></table>","null","","","","","","","","","","","","","","","","","","",""
"","html-keyboard-response",92,575018,"0.0-6.0-1.1-1.1",55,20,"f",1664215187303,750,"q","q","Only if I get the answer right","You win money","A fixed time limit",5,FALSE,"I took a few seconds break between every run (drinking water, taking a few steps around the room, breathing in and out) because when I didn't, all the shapes started blending together.","none",1,0,1,3,1,3,0,3,0,0,1,2,0,0,1,0,0,0,3,0,0,1,3,1,0,0,0,0,0,1,0,3,0,1,0,1,0,0,0,0,1,1,1,0,1,3,2,2,1,0,3,0,1,3,3,2,0,1,3,2,1,0,4,"null","","null","","true","0","1","down","up","0","q","0","0","1664215762743","","","true","60","1","0.0166666666666667","0.02","true"
"","html-keyboard-response",93,575286,"0.0-6.0-1.2-0.2",55,20,"f",1664215187303,750,"q","q","Only if I get the answer right","You win money","A fixed time limit",5,FALSE,"I took a few seconds break between every run (drinking water, taking a few steps around the room, breathing in and out) because when I didn't, all the shapes started blending together.","none",1,0,1,3,1,3,0,3,0,0,1,2,0,0,1,0,0,0,3,0,0,1,3,1,0,0,0,0,0,1,0,3,0,1,0,1,0,0,0,0,1,1,1,0,1,3,2,2,1,0,3,0,1,3,3,2,0,1,3,2,1,0,4,"267.5","<br><br><br><br><table><tr><td><img src=static/images/oddball_down.png></td><td><img src=static/images/oddball_down.png></td><td><img src=static/images/oddball_up.png></td></tr></table>","81","1","","","","","","","","","","","","","","","","","",""
"","html-keyboard-response",94,575481.020007608,"0.0-6.0-1.2-1.2",55,20,"f",1664215187303,750,"q","q","Only if I get the answer right","You win money","A fixed time limit",5,FALSE,"I took a few seconds break between every run (drinking water, taking a few steps around the room, breathing in and out) because when I didn't, all the shapes started blending together.","none",1,0,1,3,1,3,0,3,0,0,1,2,0,0,1,0,0,0,3,0,0,1,3,1,0,0,0,0,0,1,0,3,0,1,0,1,0,0,0,0,1,1,1,0,1,3,2,2,1,0,3,0,1,3,3,2,0,1,3,2,1,0,4,"350.52001","","q","","true","0","2","down","up","2","e","0","0","1664215763206.02","","","true","60","2","0.0166666666666667","0.02","false"
"","html-keyboard-response",95,576162,"0.0-6.0-1.3-0.3",55,20,"f",1664215187303,750,"q","q","Only if I get the answer right","You win money","A fixed time limit",5,FALSE,"I took a few seconds break between every run (drinking water, taking a few steps around the room, breathing in and out) because when I didn't, all the shapes started blending together.","none",1,0,1,3,1,3,0,3,0,0,1,2,0,0,1,0,0,0,3,0,0,1,3,1,0,0,0,0,0,1,0,3,0,1,0,1,0,0,0,0,1,1,1,0,1,3,2,2,1,0,3,0,1,3,3,2,0,1,3,2,1,0,4,"null","<br><br><br><br><table><tr><td><img src=static/images/oddball_down.png></td><td><img src=static/images/oddball_down.png></td><td><img src=static/images/oddball_up.png></td></tr></table>","null","","","","","","","","","","","","","","","","","","",""
"","html-keyboard-response",96,576270,"0.0-6.0-1.3-1.3",55,20,"f",1664215187303,750,"q","q","Only if I get the answer right","You win money","A fixed time limit",5,FALSE,"I took a few seconds break between every run (drinking water, taking a few steps around the room, breathing in and out) because when I didn't, all the shapes started blending together.","none",1,0,1,3,1,3,0,3,0,0,1,2,0,0,1,0,0,0,3,0,0,1,3,1,0,0,0,0,0,1,0,3,0,1,0,1,0,0,0,0,1,1,1,0,1,3,2,2,1,0,3,0,1,3,3,2,0,1,3,2,1,0,4,"null","","null","","true","0","3","down","up","2","e","0","0","1664215763995","","","true","60","3","0.0166666666666667","0.02","true"
"","html-keyboard-response",97,576846,"0.0-6.0-1.4-0.4",55,20,"f",1664215187303,750,"q","q","Only if I get the answer right","You win money","A fixed time limit",5,FALSE,"I took a few seconds break between every run (drinking water, taking a few steps around the room, breathing in and out) because when I didn't, all the shapes started blending together.","none",1,0,1,3,1,3,0,3,0,0,1,2,0,0,1,0,0,0,3,0,0,1,3,1,0,0,0,0,0,1,0,3,0,1,0,1,0,0,0,0,1,1,1,0,1,3,2,2,1,0,3,0,1,3,3,2,0,1,3,2,1,0,4,"575.8999999761581","<br><br><br><br><table><tr><td><img src=static/images/oddball_up.png></td><td><img src=static/images/oddball_up.png></td><td><img src=static/images/oddball_down.png></td></tr></table>","69","1","","","","","","","","","","","","","","","","","",""
"","html-keyboard-response",98,577099.077787208,"0.0-6.0-1.4-1.4",55,20,"f",1664215187303,750,"q","q","Only if I get the answer right","You win money","A fixed time limit",5,FALSE,"I took a few seconds break between every run (drinking water, taking a few steps around the room, breathing in and out) because when I didn't, all the shapes started blending together.","none",1,0,1,3,1,3,0,3,0,0,1,2,0,0,1,0,0,0,3,0,0,1,3,1,0,0,0,0,0,1,0,3,0,1,0,1,0,0,0,0,1,1,1,0,1,3,2,2,1,0,3,0,1,3,3,2,0,1,3,2,1,0,4,"723.977787184217","","e","","true","0","4","up","down","2","e","1","0","1664215764824.08","","","true","60","4","0.0166666666666667","0.02","false"
"","html-keyboard-response",99,577430,"0.0-6.0-1.5-0.5",55,20,"f",1664215187303,750,"q","q","Only if I get the answer right","You win money","A fixed time limit",5,FALSE,"I took a few seconds break between every run (drinking water, taking a few steps around the room, breathing in and out) because when I didn't, all the shapes started blending together.","none",1,0,1,3,1,3,0,3,0,0,1,2,0,0,1,0,0,0,3,0,0,1,3,1,0,0,0,0,0,1,0,3,0,1,0,1,0,0,0,0,1,1,1,0,1,3,2,2,1,0,3,0,1,3,3,2,0,1,3,2,1,0,4,"478.30000001192093","<br><br><br><br><table><tr><td><img src=static/images/oddball_down.png></td><td><img src=static/images/oddball_up.png></td><td><img src=static/images/oddball_up.png></td></tr></table>","81","1","","","","","","","","","","","","","","","","","",""
"","html-keyboard-response",100,577581.578110302,"0.0-6.0-1.5-1.5",55,20,"f",1664215187303,750,"q","q","Only if I get the answer right","You win money","A fixed time limit",5,FALSE,"I took a few seconds break between every run (drinking water, taking a few steps around the room, breathing in and out) because when I didn't, all the shapes started blending together.","none",1,0,1,3,1,3,0,3,0,0,1,2,0,0,1,0,0,0,3,0,0,1,3,1,0,0,0,0,0,1,0,3,0,1,0,1,0,0,0,0,1,1,1,0,1,3,2,2,1,0,3,0,1,3,3,2,0,1,3,2,1,0,4,"524.878110313428","","q","","true","0","5","up","down","0","q","1","0","1664215765306.58","","","true","60","5","0.0333333333333333","0.02","false"
"","html-keyboard-response",101,577958,"0.0-6.0-1.6-0.6",55,20,"f",1664215187303,750,"q","q","Only if I get the answer right","You win money","A fixed time limit",5,FALSE,"I took a few seconds break between every run (drinking water, taking a few steps around the room, breathing in and out) because when I didn't, all the shapes started blending together.","none",1,0,1,3,1,3,0,3,0,0,1,2,0,0,1,0,0,0,3,0,0,1,3,1,0,0,0,0,0,1,0,3,0,1,0,1,0,0,0,0,1,1,1,0,1,3,2,2,1,0,3,0,1,3,3,2,0,1,3,2,1,0,4,"422.2000000476837","<br><br><br><br><table><tr><td><img src=static/images/oddball_up.png></td><td><img src=static/images/oddball_up.png></td><td><img src=static/images/oddball_down.png></td></tr></table>","69","1","","","","","","","","","","","","","","","","","",""
"","html-keyboard-response",102,578032.169620554,"0.0-6.0-1.6-1.6",55,20,"f",1664215187303,750,"q","q","Only if I get the answer right","You win money","A fixed time limit",5,FALSE,"I took a few seconds break between every run (drinking water, taking a few steps around the room, breathing in and out) because when I didn't, all the shapes started blending together.","none",1,0,1,3,1,3,0,3,0,0,1,2,0,0,1,0,0,0,3,0,0,1,3,1,0,0,0,0,0,1,0,3,0,1,0,1,0,0,0,0,1,1,1,0,1,3,2,2,1,0,3,0,1,3,3,2,0,1,3,2,1,0,4,"385.36962060199","","e","","true","0","6","up","down","2","e","1","0","1664215765757.17","","","true","60","6","0.05","0.02","false"
"","html-keyboard-response",103,578686,"0.0-6.0-1.7-0.7",55,20,"f",1664215187303,750,"q","q","Only if I get the answer right","You win money","A fixed time limit",5,FALSE,"I took a few seconds break between every run (drinking water, taking a few steps around the room, breathing in and out) because when I didn't, all the shapes started blending together.","none",1,0,1,3,1,3,0,3,0,0,1,2,0,0,1,0,0,0,3,0,0,1,3,1,0,0,0,0,0,1,0,3,0,1,0,1,0,0,0,0,1,1,1,0,1,3,2,2,1,0,3,0,1,3,3,2,0,1,3,2,1,0,4,"615.9000000357628","<br><br><br><br><table><tr><td><img src=static/images/oddball_down.png></td><td><img src=static/images/oddball_down.png></td><td><img src=static/images/oddball_up.png></td></tr></table>","69","1","","","","","","","","","","","","","","","","","",""
"","html-keyboard-response",104,578815.274442186,"0.0-6.0-1.7-1.7",55,20,"f",1664215187303,750,"q","q","Only if I get the answer right","You win money","A fixed time limit",5,FALSE,"I took a few seconds break between every run (drinking water, taking a few steps around the room, breathing in and out) because when I didn't, all the shapes started blending together.","none",1,0,1,3,1,3,0,3,0,0,1,2,0,0,1,0,0,0,3,0,0,1,3,1,0,0,0,0,0,1,0,3,0,1,0,1,0,0,0,0,1,1,1,0,1,3,2,2,1,0,3,0,1,3,3,2,0,1,3,2,1,0,4,"643.174442221561","","e","","true","0","7","down","up","2","e","1","0","1664215766540.27","","","true","60","7","0.0666666666666667","0.02","false"
"","html-keyboard-response",105,579191,"0.0-6.0-1.8-0.8",55,20,"f",1664215187303,750,"q","q","Only if I get the answer right","You win money","A fixed time limit",5,FALSE,"I took a few seconds break between every run (drinking water, taking a few steps around the room, breathing in and out) because when I didn't, all the shapes started blending together.","none",1,0,1,3,1,3,0,3,0,0,1,2,0,0,1,0,0,0,3,0,0,1,3,1,0,0,0,0,0,1,0,3,0,1,0,1,0,0,0,0,1,1,1,0,1,3,2,2,1,0,3,0,1,3,3,2,0,1,3,2,1,0,4,"401.69999998807907","<br><br><br><br><table><tr><td><img src=static/images/oddball_up.png></td><td><img src=static/images/oddball_down.png></td><td><img src=static/images/oddball_down.png></td></tr></table>","81","1","","","","","","","","","","","","","","","","","",""
"","html-keyboard-response",106,579249.370705083,"0.0-6.0-1.8-1.8",55,20,"f",1664215187303,750,"q","q","Only if I get the answer right","You win money","A fixed time limit",5,FALSE,"I took a few seconds break between every run (drinking water, taking a few steps around the room, breathing in and out) because when I didn't, all the shapes started blending together.","none",1,0,1,3,1,3,0,3,0,0,1,2,0,0,1,0,0,0,3,0,0,1,3,1,0,0,0,0,0,1,0,3,0,1,0,1,0,0,0,0,1,1,1,0,1,3,2,2,1,0,3,0,1,3,3,2,0,1,3,2,1,0,4,"348.070705071084","","q","","true","0","8","down","up","0","q","1","0","1664215766974.37","","","true","60","8","0.0833333333333333","0.02","false"
"","html-keyboard-response",107,579662,"0.0-6.0-1.9-0.9",55,20,"f",1664215187303,750,"q","q","Only if I get the answer right","You win money","A fixed time limit",5,FALSE,"I took a few seconds break between every run (drinking water, taking a few steps around the room, breathing in and out) because when I didn't, all the shapes started blending together.","none",1,0,1,3,1,3,0,3,0,0,1,2,0,0,1,0,0,0,3,0,0,1,3,1,0,0,0,0,0,1,0,3,0,1,0,1,0,0,0,0,1,1,1,0,1,3,2,2,1,0,3,0,1,3,3,2,0,1,3,2,1,0,4,"358.30000001192093","<br><br><br><br><table><tr><td><img src=static/images/oddball_down.png></td><td><img src=static/images/oddball_down.png></td><td><img src=static/images/oddball_up.png></td></tr></table>","69","1","","","","","","","","","","","","","","","","","",""
"","html-keyboard-response",108,579816.897606722,"0.0-6.0-1.9-1.9",55,20,"f",1664215187303,750,"q","q","Only if I get the answer right","You win money","A fixed time limit",5,FALSE,"I took a few seconds break between every run (drinking water, taking a few steps around the room, breathing in and out) because when I didn't, all the shapes started blending together.","none",1,0,1,3,1,3,0,3,0,0,1,2,0,0,1,0,0,0,3,0,0,1,3,1,0,0,0,0,0,1,0,3,0,1,0,1,0,0,0,0,1,1,1,0,1,3,2,2,1,0,3,0,1,3,3,2,0,1,3,2,1,0,4,"403.19760673407","","e","","true","0","9","down","up","2","e","1","0","1664215767541.9","","","true","60","9","0.1","0.02","false"
"","html-keyboard-response",109,580238,"0.0-6.0-1.10-0.10",55,20,"f",1664215187303,750,"q","q","Only if I get the answer right","You win money","A fixed time limit",5,FALSE,"I took a few seconds break between every run (drinking water, taking a few steps around the room, breathing in and out) because when I didn't, all the shapes started blending together.","none",1,0,1,3,1,3,0,3,0,0,1,2,0,0,1,0,0,0,3,0,0,1,3,1,0,0,0,0,0,1,0,3,0,1,0,1,0,0,0,0,1,1,1,0,1,3,2,2,1,0,3,0,1,3,3,2,0,1,3,2,1,0,4,"465.4000000357628","<br><br><br><br><table><tr><td><img src=static/images/oddball_down.png></td><td><img src=static/images/oddball_up.png></td><td><img src=static/images/oddball_up.png></td></tr></table>","81","1","","","","","","","","","","","","","","","","","",""
"","html-keyboard-response",110,580319.113500643,"0.0-6.0-1.10-1.10",55,20,"f",1664215187303,750,"q","q","Only if I get the answer right","You win money","A fixed time limit",5,FALSE,"I took a few seconds break between every run (drinking water, taking a few steps around the room, breathing in and out) because when I didn't, all the shapes started blending together.","none",1,0,1,3,1,3,0,3,0,0,1,2,0,0,1,0,0,0,3,0,0,1,3,1,0,0,0,0,0,1,0,3,0,1,0,1,0,0,0,0,1,1,1,0,1,3,2,2,1,0,3,0,1,3,3,2,0,1,3,2,1,0,4,"444.51350067872","","q","","true","0","10","up","down","0","q","1","0","1664215768044.11","","","true","60","10","0.116666666666667","0.02","false"
"","html-keyboard-response",111,581030,"0.0-6.0-1.11-0.11",55,20,"f",1664215187303,750,"q","q","Only if I get the answer right","You win money","A fixed time limit",5,FALSE,"I took a few seconds break between every run (drinking water, taking a few steps around the room, breathing in and out) because when I didn't, all the shapes started blending together.","none",1,0,1,3,1,3,0,3,0,0,1,2,0,0,1,0,0,0,3,0,0,1,3,1,0,0,0,0,0,1,0,3,0,1,0,1,0,0,0,0,1,1,1,0,1,3,2,2,1,0,3,0,1,3,3,2,0,1,3,2,1,0,4,"689.8000000119209","<br><br><br><br><table><tr><td><img src=static/images/oddball_down.png></td><td><img src=static/images/oddball_down.png></td><td><img src=static/images/oddball_up.png></td></tr></table>","69","1","","","","","","","","","","","","","","","","","",""
"","html-keyboard-response",112,581179.325082881,"0.0-6.0-1.11-1.11",55,20,"f",1664215187303,750,"q","q","Only if I get the answer right","You win money","A fixed time limit",5,FALSE,"I took a few seconds break between every run (drinking water, taking a few steps around the room, breathing in and out) because when I didn't, all the shapes started blending together.","none",1,0,1,3,1,3,0,3,0,0,1,2,0,0,1,0,0,0,3,0,0,1,3,1,0,0,0,0,0,1,0,3,0,1,0,1,0,0,0,0,1,1,1,0,1,3,2,2,1,0,3,0,1,3,3,2,0,1,3,2,1,0,4,"728.125082892454","","e","","true","0","11","down","up","2","e","1","0","1664215768904.33","","","true","60","11","0.133333333333333","0.02","false"
"","html-keyboard-response",113,581542,"0.0-6.0-1.12-0.12",55,20,"f",1664215187303,750,"q","q","Only if I get the answer right","You win money","A fixed time limit",5,FALSE,"I took a few seconds break between every run (drinking water, taking a few steps around the room, breathing in and out) because when I didn't, all the shapes started blending together.","none",1,0,1,3,1,3,0,3,0,0,1,2,0,0,1,0,0,0,3,0,0,1,3,1,0,0,0,0,0,1,0,3,0,1,0,1,0,0,0,0,1,1,1,0,1,3,2,2,1,0,3,0,1,3,3,2,0,1,3,2,1,0,4,"400.39999997615814","<br><br><br><br><table><tr><td><img src=static/images/oddball_up.png></td><td><img src=static/images/oddball_down.png></td><td><img src=static/images/oddball_down.png></td></tr></table>","81","1","","","","","","","","","","","","","","","","","",""
"","html-keyboard-response",114,581728.295170822,"0.0-6.0-1.12-1.12",55,20,"f",1664215187303,750,"q","q","Only if I get the answer right","You win money","A fixed time limit",5,FALSE,"I took a few seconds break between every run (drinking water, taking a few steps around the room, breathing in and out) because when I didn't, all the shapes started blending together.","none",1,0,1,3,1,3,0,3,0,0,1,2,0,0,1,0,0,0,3,0,0,1,3,1,0,0,0,0,0,1,0,3,0,1,0,1,0,0,0,0,1,1,1,0,1,3,2,2,1,0,3,0,1,3,3,2,0,1,3,2,1,0,4,"470.695170798355","","q","","true","0","12","down","up","0","q","1","0","1664215769453.3","","","true","60","12","0.15","0.02","false"
"","html-keyboard-response",115,582270,"0.0-6.0-1.13-0.13",55,20,"f",1664215187303,750,"q","q","Only if I get the answer right","You win money","A fixed time limit",5,FALSE,"I took a few seconds break between every run (drinking water, taking a few steps around the room, breathing in and out) because when I didn't, all the shapes started blending together.","none",1,0,1,3,1,3,0,3,0,0,1,2,0,0,1,0,0,0,3,0,0,1,3,1,0,0,0,0,0,1,0,3,0,1,0,1,0,0,0,0,1,1,1,0,1,3,2,2,1,0,3,0,1,3,3,2,0,1,3,2,1,0,4,"611.6000000238419","<br><br><br><br><table><tr><td><img src=static/images/oddball_down.png></td><td><img src=static/images/oddball_up.png></td><td><img src=static/images/oddball_down.png></td></tr></table>","87","1","","","","","","","","","","","","","","","","","",""
"","html-keyboard-response",116,582465.410025633,"0.0-6.0-1.13-1.13",55,20,"f",1664215187303,750,"q","q","Only if I get the answer right","You win money","A fixed time limit",5,FALSE,"I took a few seconds break between every run (drinking water, taking a few steps around the room, breathing in and out) because when I didn't, all the shapes started blending together.","none",1,0,1,3,1,3,0,3,0,0,1,2,0,0,1,0,0,0,3,0,0,1,3,1,0,0,0,0,0,1,0,3,0,1,0,1,0,0,0,0,1,1,1,0,1,3,2,2,1,0,3,0,1,3,3,2,0,1,3,2,1,0,4,"700.010025657205","","w","","true","0","13","down","up","1","w","1","0","1664215770190.41","","","true","60","13","0.166666666666667","0.02","false"
"","html-keyboard-response",117,583133,"0.0-6.0-1.14-0.14",55,20,"f",1664215187303,750,"q","q","Only if I get the answer right","You win money","A fixed time limit",5,FALSE,"I took a few seconds break between every run (drinking water, taking a few steps around the room, breathing in and out) because when I didn't, all the shapes started blending together.","none",1,0,1,3,1,3,0,3,0,0,1,2,0,0,1,0,0,0,3,0,0,1,3,1,0,0,0,0,0,1,0,3,0,1,0,1,0,0,0,0,1,1,1,0,1,3,2,2,1,0,3,0,1,3,3,2,0,1,3,2,1,0,4,"null","<br><br><br><br><table><tr><td><img src=static/images/oddball_up.png></td><td><img src=static/images/oddball_down.png></td><td><img src=static/images/oddball_up.png></td></tr></table>","null","","","","","","","","","","","","","","","","","","",""
"","html-keyboard-response",118,583250,"0.0-6.0-1.14-1.14",55,20,"f",1664215187303,750,"q","q","Only if I get the answer right","You win money","A fixed time limit",5,FALSE,"I took a few seconds break between every run (drinking water, taking a few steps around the room, breathing in and out) because when I didn't, all the shapes started blending together.","none",1,0,1,3,1,3,0,3,0,0,1,2,0,0,1,0,0,0,3,0,0,1,3,1,0,0,0,0,0,1,0,3,0,1,0,1,0,0,0,0,1,1,1,0,1,3,2,2,1,0,3,0,1,3,3,2,0,1,3,2,1,0,4,"null","","null","","true","0","14","up","down","1","w","0","0","1664215770975","","","true","60","14","0.183333333333333","0.02","true"
"","html-keyboard-response",119,583694,"0.0-6.0-1.15-0.15",55,20,"f",1664215187303,750,"q","q","Only if I get the answer right","You win money","A fixed time limit",5,FALSE,"I took a few seconds break between every run (drinking water, taking a few steps around the room, breathing in and out) because when I didn't, all the shapes started blending together.","none",1,0,1,3,1,3,0,3,0,0,1,2,0,0,1,0,0,0,3,0,0,1,3,1,0,0,0,0,0,1,0,3,0,1,0,1,0,0,0,0,1,1,1,0,1,3,2,2,1,0,3,0,1,3,3,2,0,1,3,2,1,0,4,"443.60000002384186","<br><br><br><br><table><tr><td><img src=static/images/oddball_down.png></td><td><img src=static/images/oddball_up.png></td><td><img src=static/images/oddball_down.png></td></tr></table>","87","1","","","","","","","","","","","","","","","","","",""
"","html-keyboard-response",120,583777.833007274,"0.0-6.0-1.15-1.15",55,20,"f",1664215187303,750,"q","q","Only if I get the answer right","You win money","A fixed time limit",5,FALSE,"I took a few seconds break between every run (drinking water, taking a few steps around the room, breathing in and out) because when I didn't, all the shapes started blending together.","none",1,0,1,3,1,3,0,3,0,0,1,2,0,0,1,0,0,0,3,0,0,1,3,1,0,0,0,0,0,1,0,3,0,1,0,1,0,0,0,0,1,1,1,0,1,3,2,2,1,0,3,0,1,3,3,2,0,1,3,2,1,0,4,"425.433007298189","","w","","true","0","15","down","up","1","w","1","0","1664215771502.83","","","true","60","15","0.183333333333333","0.02","false"
"","html-keyboard-response",121,584206,"0.0-6.0-1.16-0.16",55,20,"f",1664215187303,750,"q","q","Only if I get the answer right","You win money","A fixed time limit",5,FALSE,"I took a few seconds break between every run (drinking water, taking a few steps around the room, breathing in and out) because when I didn't, all the shapes started blending together.","none",1,0,1,3,1,3,0,3,0,0,1,2,0,0,1,0,0,0,3,0,0,1,3,1,0,0,0,0,0,1,0,3,0,1,0,1,0,0,0,0,1,1,1,0,1,3,2,2,1,0,3,0,1,3,3,2,0,1,3,2,1,0,4,"409.30000001192093","<br><br><br><br><table><tr><td><img src=static/images/oddball_up.png></td><td><img src=static/images/oddball_down.png></td><td><img src=static/images/oddball_up.png></td></tr></table>","87","1","","","","","","","","","","","","","","","","","",""
"","html-keyboard-response",122,584348.514538863,"0.0-6.0-1.16-1.16",55,20,"f",1664215187303,750,"q","q","Only if I get the answer right","You win money","A fixed time limit",5,FALSE,"I took a few seconds break between every run (drinking water, taking a few steps around the room, breathing in and out) because when I didn't, all the shapes started blending together.","none",1,0,1,3,1,3,0,3,0,0,1,2,0,0,1,0,0,0,3,0,0,1,3,1,0,0,0,0,0,1,0,3,0,1,0,1,0,0,0,0,1,1,1,0,1,3,2,2,1,0,3,0,1,3,3,2,0,1,3,2,1,0,4,"443.814538875397","","w","","true","0","16","up","down","1","w","1","0","1664215772073.51","","","true","60","16","0.2","0.02","false"
"","html-keyboard-response",123,584822,"0.0-6.0-1.17-0.17",55,20,"f",1664215187303,750,"q","q","Only if I get the answer right","You win money","A fixed time limit",5,FALSE,"I took a few seconds break between every run (drinking water, taking a few steps around the room, breathing in and out) because when I didn't, all the shapes started blending together.","none",1,0,1,3,1,3,0,3,0,0,1,2,0,0,1,0,0,0,3,0,0,1,3,1,0,0,0,0,0,1,0,3,0,1,0,1,0,0,0,0,1,1,1,0,1,3,2,2,1,0,3,0,1,3,3,2,0,1,3,2,1,0,4,"508.10000002384186","<br><br><br><br><table><tr><td><img src=static/images/oddball_down.png></td><td><img src=static/images/oddball_up.png></td><td><img src=static/images/oddball_up.png></td></tr></table>","81","1","","","","","","","","","","","","","","","","","",""
"","html-keyboard-response",124,584890.232263905,"0.0-6.0-1.17-1.17",55,20,"f",1664215187303,750,"q","q","Only if I get the answer right","You win money","A fixed time limit",5,FALSE,"I took a few seconds break between every run (drinking water, taking a few steps around the room, breathing in and out) because when I didn't, all the shapes started blending together.","none",1,0,1,3,1,3,0,3,0,0,1,2,0,0,1,0,0,0,3,0,0,1,3,1,0,0,0,0,0,1,0,3,0,1,0,1,0,0,0,0,1,1,1,0,1,3,2,2,1,0,3,0,1,3,3,2,0,1,3,2,1,0,4,"467.332263929332","","q","","true","0","17","up","down","0","q","1","0","1664215772615.23","","","true","60","17","0.216666666666667","0.02","false"
"","html-keyboard-response",125,585526,"0.0-6.0-1.18-0.18",55,20,"f",1664215187303,750,"q","q","Only if I get the answer right","You win money","A fixed time limit",5,FALSE,"I took a few seconds break between every run (drinking water, taking a few steps around the room, breathing in and out) because when I didn't, all the shapes started blending together.","none",1,0,1,3,1,3,0,3,0,0,1,2,0,0,1,0,0,0,3,0,0,1,3,1,0,0,0,0,0,1,0,3,0,1,0,1,0,0,0,0,1,1,1,0,1,3,2,2,1,0,3,0,1,3,3,2,0,1,3,2,1,0,4,"594.5","<br><br><br><br><table><tr><td><img src=static/images/oddball_up.png></td><td><img src=static/images/oddball_down.png></td><td><img src=static/images/oddball_up.png></td></tr></table>","87","1","","","","","","","","","","","","","","","","","",""
"","html-keyboard-response",126,585667.245901939,"0.0-6.0-1.18-1.18",55,20,"f",1664215187303,750,"q","q","Only if I get the answer right","You win money","A fixed time limit",5,FALSE,"I took a few seconds break between every run (drinking water, taking a few steps around the room, breathing in and out) because when I didn't, all the shapes started blending together.","none",1,0,1,3,1,3,0,3,0,0,1,2,0,0,1,0,0,0,3,0,0,1,3,1,0,0,0,0,0,1,0,3,0,1,0,1,0,0,0,0,1,1,1,0,1,3,2,2,1,0,3,0,1,3,3,2,0,1,3,2,1,0,4,"628.7459","","w","","true","0","18","up","down","1","w","1","0","1664215773392.25","","","true","60","18","0.233333333333333","0.02","false"
"","html-keyboard-response",127,586374,"0.0-6.0-1.19-0.19",55,20,"f",1664215187303,750,"q","q","Only if I get the answer right","You win money","A fixed time limit",5,FALSE,"I took a few seconds break between every run (drinking water, taking a few steps around the room, breathing in and out) because when I didn't, all the shapes started blending together.","none",1,0,1,3,1,3,0,3,0,0,1,2,0,0,1,0,0,0,3,0,0,1,3,1,0,0,0,0,0,1,0,3,0,1,0,1,0,0,0,0,1,1,1,0,1,3,2,2,1,0,3,0,1,3,3,2,0,1,3,2,1,0,4,"740.3999999761581","<br><br><br><br><table><tr><td><img src=static/images/oddball_up.png></td><td><img src=static/images/oddball_down.png></td><td><img src=static/images/oddball_up.png></td></tr></table>","87","1","","","","","","","","","","","","","","","","","",""
"","html-keyboard-response",128,586463.914441965,"0.0-6.0-1.19-1.19",55,20,"f",1664215187303,750,"q","q","Only if I get the answer right","You win money","A fixed time limit",5,FALSE,"I took a few seconds break between every run (drinking water, taking a few steps around the room, breathing in and out) because when I didn't, all the shapes started blending together.","none",1,0,1,3,1,3,0,3,0,0,1,2,0,0,1,0,0,0,3,0,0,1,3,1,0,0,0,0,0,1,0,3,0,1,0,1,0,0,0,0,1,1,1,0,1,3,2,2,1,0,3,0,1,3,3,2,0,1,3,2,1,0,4,"719.314441941567","","w","","true","0","19","up","down","1","w","1","0","1664215774188.91","","","true","60","19","0.25","0.02","false"
"","html-keyboard-response",129,587134,"0.0-6.0-1.20-0.20",55,20,"f",1664215187303,750,"q","q","Only if I get the answer right","You win money","A fixed time limit",5,FALSE,"I took a few seconds break between every run (drinking water, taking a few steps around the room, breathing in and out) because when I didn't, all the shapes started blending together.","none",1,0,1,3,1,3,0,3,0,0,1,2,0,0,1,0,0,0,3,0,0,1,3,1,0,0,0,0,0,1,0,3,0,1,0,1,0,0,0,0,1,1,1,0,1,3,2,2,1,0,3,0,1,3,3,2,0,1,3,2,1,0,4,"648.5","<br><br><br><br><table><tr><td><img src=static/images/oddball_down.png></td><td><img src=static/images/oddball_up.png></td><td><img src=static/images/oddball_up.png></td></tr></table>","81","1","","","","","","","","","","","","","","","","","",""
"","html-keyboard-response",130,587284.816778537,"0.0-6.0-1.20-1.20",55,20,"f",1664215187303,750,"q","q","Only if I get the answer right","You win money","A fixed time limit",5,FALSE,"I took a few seconds break between every run (drinking water, taking a few steps around the room, breathing in and out) because when I didn't, all the shapes started blending together.","none",1,0,1,3,1,3,0,3,0,0,1,2,0,0,1,0,0,0,3,0,0,1,3,1,0,0,0,0,0,1,0,3,0,1,0,1,0,0,0,0,1,1,1,0,1,3,2,2,1,0,3,0,1,3,3,2,0,1,3,2,1,0,4,"696.31678","","q","","true","0","20","up","down","0","q","1","0","1664215775009.82","","","true","60","20","0.266666666666667","0.02","false"
"","html-keyboard-response",131,587814,"0.0-6.0-1.21-0.21",55,20,"f",1664215187303,750,"q","q","Only if I get the answer right","You win money","A fixed time limit",5,FALSE,"I took a few seconds break between every run (drinking water, taking a few steps around the room, breathing in and out) because when I didn't, all the shapes started blending together.","none",1,0,1,3,1,3,0,3,0,0,1,2,0,0,1,0,0,0,3,0,0,1,3,1,0,0,0,0,0,1,0,3,0,1,0,1,0,0,0,0,1,1,1,0,1,3,2,2,1,0,3,0,1,3,3,2,0,1,3,2,1,0,4,"576.7000000476837","<br><br><br><br><table><tr><td><img src=static/images/oddball_up.png></td><td><img src=static/images/oddball_down.png></td><td><img src=static/images/oddball_down.png></td></tr></table>","81","1","","","","","","","","","","","","","","","","","",""
"","html-keyboard-response",132,587946.850867087,"0.0-6.0-1.21-1.21",55,20,"f",1664215187303,750,"q","q","Only if I get the answer right","You win money","A fixed time limit",5,FALSE,"I took a few seconds break between every run (drinking water, taking a few steps around the room, breathing in and out) because when I didn't, all the shapes started blending together.","none",1,0,1,3,1,3,0,3,0,0,1,2,0,0,1,0,0,0,3,0,0,1,3,1,0,0,0,0,0,1,0,3,0,1,0,1,0,0,0,0,1,1,1,0,1,3,2,2,1,0,3,0,1,3,3,2,0,1,3,2,1,0,4,"602.550867134741","","q","","true","0","21","down","up","0","q","1","0","1664215775671.85","","","true","60","21","0.283333333333333","0.02","false"
"","html-keyboard-response",133,588366,"0.0-6.0-1.22-0.22",55,20,"f",1664215187303,750,"q","q","Only if I get the answer right","You win money","A fixed time limit",5,FALSE,"I took a few seconds break between every run (drinking water, taking a few steps around the room, breathing in and out) because when I didn't, all the shapes started blending together.","none",1,0,1,3,1,3,0,3,0,0,1,2,0,0,1,0,0,0,3,0,0,1,3,1,0,0,0,0,0,1,0,3,0,1,0,1,0,0,0,0,1,1,1,0,1,3,2,2,1,0,3,0,1,3,3,2,0,1,3,2,1,0,4,"444.80000001192093","<br><br><br><br><table><tr><td><img src=static/images/oddball_down.png></td><td><img src=static/images/oddball_up.png></td><td><img src=static/images/oddball_up.png></td></tr></table>","81","1","","","","","","","","","","","","","","","","","",""
"","html-keyboard-response",134,588452.706230149,"0.0-6.0-1.22-1.22",55,20,"f",1664215187303,750,"q","q","Only if I get the answer right","You win money","A fixed time limit",5,FALSE,"I took a few seconds break between every run (drinking water, taking a few steps around the room, breathing in and out) because when I didn't, all the shapes started blending together.","none",1,0,1,3,1,3,0,3,0,0,1,2,0,0,1,0,0,0,3,0,0,1,3,1,0,0,0,0,0,1,0,3,0,1,0,1,0,0,0,0,1,1,1,0,1,3,2,2,1,0,3,0,1,3,3,2,0,1,3,2,1,0,4,"427.506230161191","","q","","true","0","22","up","down","0","q","1","0","1664215776177.71","","","true","60","22","0.3","0.02","false"
"","html-keyboard-response",135,589094,"0.0-6.0-1.23-0.23",55,20,"f",1664215187303,750,"q","q","Only if I get the answer right","You win money","A fixed time limit",5,FALSE,"I took a few seconds break between every run (drinking water, taking a few steps around the room, breathing in and out) because when I didn't, all the shapes started blending together.","none",1,0,1,3,1,3,0,3,0,0,1,2,0,0,1,0,0,0,3,0,0,1,3,1,0,0,0,0,0,1,0,3,0,1,0,1,0,0,0,0,1,1,1,0,1,3,2,2,1,0,3,0,1,3,3,2,0,1,3,2,1,0,4,"622.5999999642372","<br><br><br><br><table><tr><td><img src=static/images/oddball_down.png></td><td><img src=static/images/oddball_down.png></td><td><img src=static/images/oddball_up.png></td></tr></table>","69","1","","","","","","","","","","","","","","","","","",""
"","html-keyboard-response",136,589243.739982881,"0.0-6.0-1.23-1.23",55,20,"f",1664215187303,750,"q","q","Only if I get the answer right","You win money","A fixed time limit",5,FALSE,"I took a few seconds break between every run (drinking water, taking a few steps around the room, breathing in and out) because when I didn't, all the shapes started blending together.","none",1,0,1,3,1,3,0,3,0,0,1,2,0,0,1,0,0,0,3,0,0,1,3,1,0,0,0,0,0,1,0,3,0,1,0,1,0,0,0,0,1,1,1,0,1,3,2,2,1,0,3,0,1,3,3,2,0,1,3,2,1,0,4,"660.339982844815","","e","","true","0","23","down","up","2","e","1","0","1664215776968.74","","","true","60","23","0.316666666666667","0.02","false"
"","html-keyboard-response",137,589798,"0.0-6.0-1.24-0.24",55,20,"f",1664215187303,750,"q","q","Only if I get the answer right","You win money","A fixed time limit",5,FALSE,"I took a few seconds break between every run (drinking water, taking a few steps around the room, breathing in and out) because when I didn't, all the shapes started blending together.","none",1,0,1,3,1,3,0,3,0,0,1,2,0,0,1,0,0,0,3,0,0,1,3,1,0,0,0,0,0,1,0,3,0,1,0,1,0,0,0,0,1,1,1,0,1,3,2,2,1,0,3,0,1,3,3,2,0,1,3,2,1,0,4,"591.6999999880791","<br><br><br><br><table><tr><td><img src=static/images/oddball_down.png></td><td><img src=static/images/oddball_down.png></td><td><img src=static/images/oddball_up.png></td></tr></table>","69","1","","","","","","","","","","","","","","","","","",""
"","html-keyboard-response",138,589912.135276666,"0.0-6.0-1.24-1.24",55,20,"f",1664215187303,750,"q","q","Only if I get the answer right","You win money","A fixed time limit",5,FALSE,"I took a few seconds break between every run (drinking water, taking a few steps around the room, breathing in and out) because when I didn't, all the shapes started blending together.","none",1,0,1,3,1,3,0,3,0,0,1,2,0,0,1,0,0,0,3,0,0,1,3,1,0,0,0,0,0,1,0,3,0,1,0,1,0,0,0,0,1,1,1,0,1,3,2,2,1,0,3,0,1,3,3,2,0,1,3,2,1,0,4,"596.835276654527","","e","","true","0","24","down","up","2","e","1","0","1664215777638.14","","","true","60","24","0.333333333333333","0.02","false"
"","html-keyboard-response",139,590430,"0.0-6.0-1.25-0.25",55,20,"f",1664215187303,750,"q","q","Only if I get the answer right","You win money","A fixed time limit",5,FALSE,"I took a few seconds break between every run (drinking water, taking a few steps around the room, breathing in and out) because when I didn't, all the shapes started blending together.","none",1,0,1,3,1,3,0,3,0,0,1,2,0,0,1,0,0,0,3,0,0,1,3,1,0,0,0,0,0,1,0,3,0,1,0,1,0,0,0,0,1,1,1,0,1,3,2,2,1,0,3,0,1,3,3,2,0,1,3,2,1,0,4,"521.5999999642372","<br><br><br><br><table><tr><td><img src=static/images/oddball_up.png></td><td><img src=static/images/oddball_down.png></td><td><img src=static/images/oddball_up.png></td></tr></table>","87","1","","","","","","","","","","","","","","","","","",""
"","html-keyboard-response",140,590494.009324359,"0.0-6.0-1.25-1.25",55,20,"f",1664215187303,750,"q","q","Only if I get the answer right","You win money","A fixed time limit",5,FALSE,"I took a few seconds break between every run (drinking water, taking a few steps around the room, breathing in and out) because when I didn't, all the shapes started blending together.","none",1,0,1,3,1,3,0,3,0,0,1,2,0,0,1,0,0,0,3,0,0,1,3,1,0,0,0,0,0,1,0,3,0,1,0,1,0,0,0,0,1,1,1,0,1,3,2,2,1,0,3,0,1,3,3,2,0,1,3,2,1,0,4,"473.609324322953","","w","","true","0","25","up","down","1","w","1","0","1664215778219.01","","","true","60","25","0.35","0.02","false"
"","html-keyboard-response",141,591110,"0.0-6.0-1.26-0.26",55,20,"f",1664215187303,750,"q","q","Only if I get the answer right","You win money","A fixed time limit",5,FALSE,"I took a few seconds break between every run (drinking water, taking a few steps around the room, breathing in and out) because when I didn't, all the shapes started blending together.","none",1,0,1,3,1,3,0,3,0,0,1,2,0,0,1,0,0,0,3,0,0,1,3,1,0,0,0,0,0,1,0,3,0,1,0,1,0,0,0,0,1,1,1,0,1,3,2,2,1,0,3,0,1,3,3,2,0,1,3,2,1,0,4,"567.6999999880791","<br><br><br><br><table><tr><td><img src=static/images/oddball_up.png></td><td><img src=static/images/oddball_up.png></td><td><img src=static/images/oddball_down.png></td></tr></table>","69","1","","","","","","","","","","","","","","","","","",""
"","html-keyboard-response",142,591124.129647934,"0.0-6.0-1.26-1.26",55,20,"f",1664215187303,750,"q","q","Only if I get the answer right","You win money","A fixed time limit",5,FALSE,"I took a few seconds break between every run (drinking water, taking a few steps around the room, breathing in and out) because when I didn't, all the shapes started blending together.","none",1,0,1,3,1,3,0,3,0,0,1,2,0,0,1,0,0,0,3,0,0,1,3,1,0,0,0,0,0,1,0,3,0,1,0,1,0,0,0,0,1,1,1,0,1,3,2,2,1,0,3,0,1,3,3,2,0,1,3,2,1,0,4,"466.829647921568","","e","","true","0","26","up","down","2","e","1","0","1664215778849.13","","","true","60","26","0.366666666666667","0.02","false"
"","html-keyboard-response",143,591710,"0.0-6.0-1.27-0.27",55,20,"f",1664215187303,750,"q","q","Only if I get the answer right","You win money","A fixed time limit",5,FALSE,"I took a few seconds break between every run (drinking water, taking a few steps around the room, breathing in and out) because when I didn't, all the shapes started blending together.","none",1,0,1,3,1,3,0,3,0,0,1,2,0,0,1,0,0,0,3,0,0,1,3,1,0,0,0,0,0,1,0,3,0,1,0,1,0,0,0,0,1,1,1,0,1,3,2,2,1,0,3,0,1,3,3,2,0,1,3,2,1,0,4,"484.30000001192093","<br><br><br><br><table><tr><td><img src=static/images/oddball_up.png></td><td><img src=static/images/oddball_up.png></td><td><img src=static/images/oddball_down.png></td></tr></table>","69","1","","","","","","","","","","","","","","","","","",""
"","html-keyboard-response",144,591789.500715065,"0.0-6.0-1.27-1.27",55,20,"f",1664215187303,750,"q","q","Only if I get the answer right","You win money","A fixed time limit",5,FALSE,"I took a few seconds break between every run (drinking water, taking a few steps around the room, breathing in and out) because when I didn't, all the shapes started blending together.","none",1,0,1,3,1,3,0,3,0,0,1,2,0,0,1,0,0,0,3,0,0,1,3,1,0,0,0,0,0,1,0,3,0,1,0,1,0,0,0,0,1,1,1,0,1,3,2,2,1,0,3,0,1,3,3,2,0,1,3,2,1,0,4,"446.800715076944","","e","","true","0","27","up","down","2","e","1","0","1664215779514.5","","","true","60","27","0.383333333333333","0.02","false"
"","html-keyboard-response",145,592230,"0.0-6.0-1.28-0.28",55,20,"f",1664215187303,750,"q","q","Only if I get the answer right","You win money","A fixed time limit",5,FALSE,"I took a few seconds break between every run (drinking water, taking a few steps around the room, breathing in and out) because when I didn't, all the shapes started blending together.","none",1,0,1,3,1,3,0,3,0,0,1,2,0,0,1,0,0,0,3,0,0,1,3,1,0,0,0,0,0,1,0,3,0,1,0,1,0,0,0,0,1,1,1,0,1,3,2,2,1,0,3,0,1,3,3,2,0,1,3,2,1,0,4,"402.89999997615814","<br><br><br><br><table><tr><td><img src=static/images/oddball_down.png></td><td><img src=static/images/oddball_up.png></td><td><img src=static/images/oddball_up.png></td></tr></table>","81","1","","","","","","","","","","","","","","","","","",""
"","html-keyboard-response",146,592321.508329905,"0.0-6.0-1.28-1.28",55,20,"f",1664215187303,750,"q","q","Only if I get the answer right","You win money","A fixed time limit",5,FALSE,"I took a few seconds break between every run (drinking water, taking a few steps around the room, breathing in and out) because when I didn't, all the shapes started blending together.","none",1,0,1,3,1,3,0,3,0,0,1,2,0,0,1,0,0,0,3,0,0,1,3,1,0,0,0,0,0,1,0,3,0,1,0,1,0,0,0,0,1,1,1,0,1,3,2,2,1,0,3,0,1,3,3,2,0,1,3,2,1,0,4,"382.408329881031","","q","","true","0","28","up","down","0","q","1","0","1664215780046.51","","","true","60","28","0.4","0.02","false"
"","html-keyboard-response",147,592846,"0.0-6.0-1.29-0.29",55,20,"f",1664215187303,750,"q","q","Only if I get the answer right","You win money","A fixed time limit",5,FALSE,"I took a few seconds break between every run (drinking water, taking a few steps around the room, breathing in and out) because when I didn't, all the shapes started blending together.","none",1,0,1,3,1,3,0,3,0,0,1,2,0,0,1,0,0,0,3,0,0,1,3,1,0,0,0,0,0,1,0,3,0,1,0,1,0,0,0,0,1,1,1,0,1,3,2,2,1,0,3,0,1,3,3,2,0,1,3,2,1,0,4,"503.30000001192093","<br><br><br><br><table><tr><td><img src=static/images/oddball_up.png></td><td><img src=static/images/oddball_down.png></td><td><img src=static/images/oddball_up.png></td></tr></table>","87","1","","","","","","","","","","","","","","","","","",""
