"success","trial_type","trial_index","time_elapsed","internal_node_id","subject","age","sex","date","deadline","instQ1","instQ2","instQ3","instQ4","instQ5","totalInstQ","gender","strategy","comments","DASS1_s","DASS2_a","DASS3_d","DASS4_a","DASS5_d","DASS6_s","DASS7_a","DASS8_s","DASS9_a","DASS10_d","DASS11_s","DASS12_s","DASS13_d","DASS14_s","DASS15_a","DASS16_d","DASS17_d","DASS18_s","DASS19_a","DASS20_a","DASS21_d","BB1","BB2","BB3","BB4","BB5","BB6","BB7","BB8","BB9","BB10","BB11","BB12","BB13","BB14","BB15","BB16","BB17","BB18","BB19","BB20","BB21","BB22","BB23","BB24","NFC1","NFC2","NFC3","NFC4","NFC5","NFC6","NFC7","NFC8","NFC9","NFC10","NFC11","NFC12","NFC13","NFC14","NFC15","NFC16","NFC17","NFC18","rt","stimulus","key_press","npress","isDataTrial","block","trialinblock","common","odd","oddidx","correct_ans","accuracy","totalTokens","timestamp","responses","question_order","showprog","blocklen","trial","progress","reward","timedout"
"true","fullscreen","0","8562","0.0-0.0","077","20","f","1666105369758","750","q","q","Only if I get the answer right","You win money","A fixed time limit","5","female","i tried to look at which ball was the odd one and took some breaks","it was quite fast so difficult to choose the right one all the time","2","1","1","0","2","1","0","3","2","2","2","3","1","1","0","1","0","0","1","1","0","0","3","1","1","1","1","1","1","2","1","1","1","1","1","2","1","0","1","0","2","2","3","1","0","1","1","1","3","2","2","1","3","3","3","3","2","1","2","2","3","1","3","","","","","","","","","","","","","","","","","","","","","",""
"","image-keyboard-response","1","70472","0.0-1.0-0.0","077","20","f","1666105369758","750","q","q","Only if I get the answer right","You win money","A fixed time limit","5","female","i tried to look at which ball was the odd one and took some breaks","it was quite fast so difficult to choose the right one all the time","2","1","1","0","2","1","0","3","2","2","2","3","1","1","0","1","0","0","1","1","0","0","3","1","1","1","1","1","1","2","1","1","1","1","1","2","1","0","1","0","2","2","3","1","0","1","1","1","3","2","2","1","3","3","3","3","2","1","2","2","3","1","3","61903.19999998808","static/images/instructions/Slide1.png","39","","","","","","","","","","","","","","","","","","",""
"","image-keyboard-response","2","79426","0.0-1.1-0.1","077","20","f","1666105369758","750","q","q","Only if I get the answer right","You win money","A fixed time limit","5","female","i tried to look at which ball was the odd one and took some breaks","it was quite fast so difficult to choose the right one all the time","2","1","1","0","2","1","0","3","2","2","2","3","1","1","0","1","0","0","1","1","0","0","3","1","1","1","1","1","1","2","1","1","1","1","1","2","1","0","1","0","2","2","3","1","0","1","1","1","3","2","2","1","3","3","3","3","2","1","2","2","3","1","3","8952.699999988079","static/images/instructions/Slide2.png","39","","","","","","","","","","","","","","","","","","",""
"","image-keyboard-response","3","89082","0.0-1.2-0.2","077","20","f","1666105369758","750","q","q","Only if I get the answer right","You win money","A fixed time limit","5","female","i tried to look at which ball was the odd one and took some breaks","it was quite fast so difficult to choose the right one all the time","2","1","1","0","2","1","0","3","2","2","2","3","1","1","0","1","0","0","1","1","0","0","3","1","1","1","1","1","1","2","1","1","1","1","1","2","1","0","1","0","2","2","3","1","0","1","1","1","3","2","2","1","3","3","3","3","2","1","2","2","3","1","3","9654.800000011921","static/images/instructions/Slide3.png","39","","","","","","","","","","","","","","","","","","",""
"","image-keyboard-response","4","97618","0.0-1.3-0.3","077","20","f","1666105369758","750","q","q","Only if I get the answer right","You win money","A fixed time limit","5","female","i tried to look at which ball was the odd one and took some breaks","it was quite fast so difficult to choose the right one all the time","2","1","1","0","2","1","0","3","2","2","2","3","1","1","0","1","0","0","1","1","0","0","3","1","1","1","1","1","1","2","1","1","1","1","1","2","1","0","1","0","2","2","3","1","0","1","1","1","3","2","2","1","3","3","3","3","2","1","2","2","3","1","3","8535.5","static/images/instructions/Slide4.png","39","","","","","","","","","","","","","","","","","","",""
"","image-keyboard-response","5","114322","0.0-1.4-0.4","077","20","f","1666105369758","750","q","q","Only if I get the answer right","You win money","A fixed time limit","5","female","i tried to look at which ball was the odd one and took some breaks","it was quite fast so difficult to choose the right one all the time","2","1","1","0","2","1","0","3","2","2","2","3","1","1","0","1","0","0","1","1","0","0","3","1","1","1","1","1","1","2","1","1","1","1","1","2","1","0","1","0","2","2","3","1","0","1","1","1","3","2","2","1","3","3","3","3","2","1","2","2","3","1","3","16703.100000023842","static/images/instructions/Slide5.png","39","","","","","","","","","","","","","","","","","","",""
"","image-keyboard-response","6","118114","0.0-1.5-0.5","077","20","f","1666105369758","750","q","q","Only if I get the answer right","You win money","A fixed time limit","5","female","i tried to look at which ball was the odd one and took some breaks","it was quite fast so difficult to choose the right one all the time","2","1","1","0","2","1","0","3","2","2","2","3","1","1","0","1","0","0","1","1","0","0","3","1","1","1","1","1","1","2","1","1","1","1","1","2","1","0","1","0","2","2","3","1","0","1","1","1","3","2","2","1","3","3","3","3","2","1","2","2","3","1","3","3791.199999988079","static/images/instructions/Slide6.png","39","","","","","","","","","","","","","","","","","","",""
"","image-keyboard-response","7","132642","0.0-1.6-0.6","077","20","f","1666105369758","750","q","q","Only if I get the answer right","You win money","A fixed time limit","5","female","i tried to look at which ball was the odd one and took some breaks","it was quite fast so difficult to choose the right one all the time","2","1","1","0","2","1","0","3","2","2","2","3","1","1","0","1","0","0","1","1","0","0","3","1","1","1","1","1","1","2","1","1","1","1","1","2","1","0","1","0","2","2","3","1","0","1","1","1","3","2","2","1","3","3","3","3","2","1","2","2","3","1","3","14535.699999988079","static/images/instructions/Slide7.png","39","","","","","","","","","","","","","","","","","","",""
"","html-keyboard-response","8","136274","0.0-2.0-0.0","077","20","f","1666105369758","750","q","q","Only if I get the answer right","You win money","A fixed time limit","5","female","i tried to look at which ball was the odd one and took some breaks","it was quite fast so difficult to choose the right one all the time","2","1","1","0","2","1","0","3","2","2","2","3","1","1","0","1","0","0","1","1","0","0","3","1","1","1","1","1","1","2","1","1","1","1","1","2","1","0","1","0","2","2","3","1","0","1","1","1","3","2","2","1","3","3","3","3","2","1","2","2","3","1","3","3630.5","<br><br><br><br><table><tr><td><img src=static/images/oddball_down.png></td><td><img src=static/images/oddball_up.png></td><td><img src=static/images/oddball_down.png></td></tr></table>","87","1","","","","","","","","","","","","","","","","","",""
"","html-keyboard-response","9","138780","0.0-2.0-1.0","077","20","f","1666105369758","750","q","q","Only if I get the answer right","You win money","A fixed time limit","5","female","i tried to look at which ball was the odd one and took some breaks","it was quite fast so difficult to choose the right one all the time","2","1","1","0","2","1","0","3","2","2","2","3","1","1","0","1","0","0","1","1","0","0","3","1","1","1","1","1","1","2","1","1","1","1","1","2","1","0","1","0","2","2","3","1","0","1","1","1","3","2","2","1","3","3","3","3","2","1","2","2","3","1","3","null","<div style=""font-size:75px;""><b>Correct</b></div>","null","","","","","","","","","","","","","","","","","","",""
"","html-keyboard-response","10","139790","0.0-2.0-2.0","077","20","f","1666105369758","750","q","q","Only if I get the answer right","You win money","A fixed time limit","5","female","i tried to look at which ball was the odd one and took some breaks","it was quite fast so difficult to choose the right one all the time","2","1","1","0","2","1","0","3","2","2","2","3","1","1","0","1","0","0","1","1","0","0","3","1","1","1","1","1","1","2","1","1","1","1","1","2","1","0","1","0","2","2","3","1","0","1","1","1","3","2","2","1","3","3","3","3","2","1","2","2","3","1","3","3630.5","","w","","true","practice","0","down","up","1","w","1","0","1666105509893","","","","","","","",""
"","html-keyboard-response","11","141602","0.0-2.1-0.1","077","20","f","1666105369758","750","q","q","Only if I get the answer right","You win money","A fixed time limit","5","female","i tried to look at which ball was the odd one and took some breaks","it was quite fast so difficult to choose the right one all the time","2","1","1","0","2","1","0","3","2","2","2","3","1","1","0","1","0","0","1","1","0","0","3","1","1","1","1","1","1","2","1","1","1","1","1","2","1","0","1","0","2","2","3","1","0","1","1","1","3","2","2","1","3","3","3","3","2","1","2","2","3","1","3","1810.6000000238419","<br><br><br><br><table><tr><td><img src=static/images/oddball_down.png></td><td><img src=static/images/oddball_up.png></td><td><img src=static/images/oddball_down.png></td></tr></table>","87","1","","","","","","","","","","","","","","","","","",""
"","html-keyboard-response","12","144113","0.0-2.1-1.1","077","20","f","1666105369758","750","q","q","Only if I get the answer right","You win money","A fixed time limit","5","female","i tried to look at which ball was the odd one and took some breaks","it was quite fast so difficult to choose the right one all the time","2","1","1","0","2","1","0","3","2","2","2","3","1","1","0","1","0","0","1","1","0","0","3","1","1","1","1","1","1","2","1","1","1","1","1","2","1","0","1","0","2","2","3","1","0","1","1","1","3","2","2","1","3","3","3","3","2","1","2","2","3","1","3","null","<div style=""font-size:75px;""><b>Correct</b></div>","null","","","","","","","","","","","","","","","","","","",""
"","html-keyboard-response","13","145118","0.0-2.1-2.1","077","20","f","1666105369758","750","q","q","Only if I get the answer right","You win money","A fixed time limit","5","female","i tried to look at which ball was the odd one and took some breaks","it was quite fast so difficult to choose the right one all the time","2","1","1","0","2","1","0","3","2","2","2","3","1","1","0","1","0","0","1","1","0","0","3","1","1","1","1","1","1","2","1","1","1","1","1","2","1","0","1","0","2","2","3","1","0","1","1","1","3","2","2","1","3","3","3","3","2","1","2","2","3","1","3","1810.6000000238419","","w","","true","practice","1","down","up","1","w","1","0","1666105515220","","","","","","","",""
"","html-keyboard-response","14","146329","0.0-2.2-0.2","077","20","f","1666105369758","750","q","q","Only if I get the answer right","You win money","A fixed time limit","5","female","i tried to look at which ball was the odd one and took some breaks","it was quite fast so difficult to choose the right one all the time","2","1","1","0","2","1","0","3","2","2","2","3","1","1","0","1","0","0","1","1","0","0","3","1","1","1","1","1","1","2","1","1","1","1","1","2","1","0","1","0","2","2","3","1","0","1","1","1","3","2","2","1","3","3","3","3","2","1","2","2","3","1","3","1211.3999999761581","<br><br><br><br><table><tr><td><img src=static/images/oddball_down.png></td><td><img src=static/images/oddball_up.png></td><td><img src=static/images/oddball_up.png></td></tr></table>","81","1","","","","","","","","","","","","","","","","","",""
"","html-keyboard-response","15","148837","0.0-2.2-1.2","077","20","f","1666105369758","750","q","q","Only if I get the answer right","You win money","A fixed time limit","5","female","i tried to look at which ball was the odd one and took some breaks","it was quite fast so difficult to choose the right one all the time","2","1","1","0","2","1","0","3","2","2","2","3","1","1","0","1","0","0","1","1","0","0","3","1","1","1","1","1","1","2","1","1","1","1","1","2","1","0","1","0","2","2","3","1","0","1","1","1","3","2","2","1","3","3","3","3","2","1","2","2","3","1","3","null","<div style=""font-size:75px;""><b>Correct</b></div>","null","","","","","","","","","","","","","","","","","","",""
"","html-keyboard-response","16","149842","0.0-2.2-2.2","077","20","f","1666105369758","750","q","q","Only if I get the answer right","You win money","A fixed time limit","5","female","i tried to look at which ball was the odd one and took some breaks","it was quite fast so difficult to choose the right one all the time","2","1","1","0","2","1","0","3","2","2","2","3","1","1","0","1","0","0","1","1","0","0","3","1","1","1","1","1","1","2","1","1","1","1","1","2","1","0","1","0","2","2","3","1","0","1","1","1","3","2","2","1","3","3","3","3","2","1","2","2","3","1","3","1211.3999999761581","","q","","true","practice","2","up","down","0","q","1","0","1666105519944","","","","","","","",""
"","html-keyboard-response","17","150946","0.0-2.3-0.3","077","20","f","1666105369758","750","q","q","Only if I get the answer right","You win money","A fixed time limit","5","female","i tried to look at which ball was the odd one and took some breaks","it was quite fast so difficult to choose the right one all the time","2","1","1","0","2","1","0","3","2","2","2","3","1","1","0","1","0","0","1","1","0","0","3","1","1","1","1","1","1","2","1","1","1","1","1","2","1","0","1","0","2","2","3","1","0","1","1","1","3","2","2","1","3","3","3","3","2","1","2","2","3","1","3","1102.5","<br><br><br><br><table><tr><td><img src=static/images/oddball_down.png></td><td><img src=static/images/oddball_up.png></td><td><img src=static/images/oddball_down.png></td></tr></table>","87","1","","","","","","","","","","","","","","","","","",""
"","html-keyboard-response","18","153447","0.0-2.3-1.3","077","20","f","1666105369758","750","q","q","Only if I get the answer right","You win money","A fixed time limit","5","female","i tried to look at which ball was the odd one and took some breaks","it was quite fast so difficult to choose the right one all the time","2","1","1","0","2","1","0","3","2","2","2","3","1","1","0","1","0","0","1","1","0","0","3","1","1","1","1","1","1","2","1","1","1","1","1","2","1","0","1","0","2","2","3","1","0","1","1","1","3","2","2","1","3","3","3","3","2","1","2","2","3","1","3","null","<div style=""font-size:75px;""><b>Correct</b></div>","null","","","","","","","","","","","","","","","","","","",""
"","html-keyboard-response","19","154453","0.0-2.3-2.3","077","20","f","1666105369758","750","q","q","Only if I get the answer right","You win money","A fixed time limit","5","female","i tried to look at which ball was the odd one and took some breaks","it was quite fast so difficult to choose the right one all the time","2","1","1","0","2","1","0","3","2","2","2","3","1","1","0","1","0","0","1","1","0","0","3","1","1","1","1","1","1","2","1","1","1","1","1","2","1","0","1","0","2","2","3","1","0","1","1","1","3","2","2","1","3","3","3","3","2","1","2","2","3","1","3","1102.5","","w","","true","practice","3","down","up","1","w","1","0","1666105524555","","","","","","","",""
"","html-keyboard-response","20","155346","0.0-2.4-0.4","077","20","f","1666105369758","750","q","q","Only if I get the answer right","You win money","A fixed time limit","5","female","i tried to look at which ball was the odd one and took some breaks","it was quite fast so difficult to choose the right one all the time","2","1","1","0","2","1","0","3","2","2","2","3","1","1","0","1","0","0","1","1","0","0","3","1","1","1","1","1","1","2","1","1","1","1","1","2","1","0","1","0","2","2","3","1","0","1","1","1","3","2","2","1","3","3","3","3","2","1","2","2","3","1","3","892","<br><br><br><br><table><tr><td><img src=static/images/oddball_up.png></td><td><img src=static/images/oddball_down.png></td><td><img src=static/images/oddball_down.png></td></tr></table>","81","1","","","","","","","","","","","","","","","","","",""
"","html-keyboard-response","21","157854","0.0-2.4-1.4","077","20","f","1666105369758","750","q","q","Only if I get the answer right","You win money","A fixed time limit","5","female","i tried to look at which ball was the odd one and took some breaks","it was quite fast so difficult to choose the right one all the time","2","1","1","0","2","1","0","3","2","2","2","3","1","1","0","1","0","0","1","1","0","0","3","1","1","1","1","1","1","2","1","1","1","1","1","2","1","0","1","0","2","2","3","1","0","1","1","1","3","2","2","1","3","3","3","3","2","1","2","2","3","1","3","null","<div style=""font-size:75px;""><b>Correct</b></div>","null","","","","","","","","","","","","","","","","","","",""
"","html-keyboard-response","22","158859","0.0-2.4-2.4","077","20","f","1666105369758","750","q","q","Only if I get the answer right","You win money","A fixed time limit","5","female","i tried to look at which ball was the odd one and took some breaks","it was quite fast so difficult to choose the right one all the time","2","1","1","0","2","1","0","3","2","2","2","3","1","1","0","1","0","0","1","1","0","0","3","1","1","1","1","1","1","2","1","1","1","1","1","2","1","0","1","0","2","2","3","1","0","1","1","1","3","2","2","1","3","3","3","3","2","1","2","2","3","1","3","892","","q","","true","practice","4","down","up","0","q","1","0","1666105528961","","","","","","","",""
"","html-keyboard-response","23","160337","0.0-2.5-0.5","077","20","f","1666105369758","750","q","q","Only if I get the answer right","You win money","A fixed time limit","5","female","i tried to look at which ball was the odd one and took some breaks","it was quite fast so difficult to choose the right one all the time","2","1","1","0","2","1","0","3","2","2","2","3","1","1","0","1","0","0","1","1","0","0","3","1","1","1","1","1","1","2","1","1","1","1","1","2","1","0","1","0","2","2","3","1","0","1","1","1","3","2","2","1","3","3","3","3","2","1","2","2","3","1","3","1478.0999999642372","<br><br><br><br><table><tr><td><img src=static/images/oddball_up.png></td><td><img src=static/images/oddball_up.png></td><td><img src=static/images/oddball_down.png></td></tr></table>","69","1","","","","","","","","","","","","","","","","","",""
"","html-keyboard-response","24","162846","0.0-2.5-1.5","077","20","f","1666105369758","750","q","q","Only if I get the answer right","You win money","A fixed time limit","5","female","i tried to look at which ball was the odd one and took some breaks","it was quite fast so difficult to choose the right one all the time","2","1","1","0","2","1","0","3","2","2","2","3","1","1","0","1","0","0","1","1","0","0","3","1","1","1","1","1","1","2","1","1","1","1","1","2","1","0","1","0","2","2","3","1","0","1","1","1","3","2","2","1","3","3","3","3","2","1","2","2","3","1","3","null","<div style=""font-size:75px;""><b>Correct</b></div>","null","","","","","","","","","","","","","","","","","","",""
"","html-keyboard-response","25","163862","0.0-2.5-2.5","077","20","f","1666105369758","750","q","q","Only if I get the answer right","You win money","A fixed time limit","5","female","i tried to look at which ball was the odd one and took some breaks","it was quite fast so difficult to choose the right one all the time","2","1","1","0","2","1","0","3","2","2","2","3","1","1","0","1","0","0","1","1","0","0","3","1","1","1","1","1","1","2","1","1","1","1","1","2","1","0","1","0","2","2","3","1","0","1","1","1","3","2","2","1","3","3","3","3","2","1","2","2","3","1","3","1478.0999999642372","","e","","true","practice","5","up","down","2","e","1","0","1666105533964","","","","","","","",""
"","html-keyboard-response","26","165346","0.0-2.6-0.6","077","20","f","1666105369758","750","q","q","Only if I get the answer right","You win money","A fixed time limit","5","female","i tried to look at which ball was the odd one and took some breaks","it was quite fast so difficult to choose the right one all the time","2","1","1","0","2","1","0","3","2","2","2","3","1","1","0","1","0","0","1","1","0","0","3","1","1","1","1","1","1","2","1","1","1","1","1","2","1","0","1","0","2","2","3","1","0","1","1","1","3","2","2","1","3","3","3","3","2","1","2","2","3","1","3","1483","<br><br><br><br><table><tr><td><img src=static/images/oddball_up.png></td><td><img src=static/images/oddball_down.png></td><td><img src=static/images/oddball_up.png></td></tr></table>","87","1","","","","","","","","","","","","","","","","","",""
"","html-keyboard-response","27","167856","0.0-2.6-1.6","077","20","f","1666105369758","750","q","q","Only if I get the answer right","You win money","A fixed time limit","5","female","i tried to look at which ball was the odd one and took some breaks","it was quite fast so difficult to choose the right one all the time","2","1","1","0","2","1","0","3","2","2","2","3","1","1","0","1","0","0","1","1","0","0","3","1","1","1","1","1","1","2","1","1","1","1","1","2","1","0","1","0","2","2","3","1","0","1","1","1","3","2","2","1","3","3","3","3","2","1","2","2","3","1","3","null","<div style=""font-size:75px;""><b>Correct</b></div>","null","","","","","","","","","","","","","","","","","","",""
"","html-keyboard-response","28","168861","0.0-2.6-2.6","077","20","f","1666105369758","750","q","q","Only if I get the answer right","You win money","A fixed time limit","5","female","i tried to look at which ball was the odd one and took some breaks","it was quite fast so difficult to choose the right one all the time","2","1","1","0","2","1","0","3","2","2","2","3","1","1","0","1","0","0","1","1","0","0","3","1","1","1","1","1","1","2","1","1","1","1","1","2","1","0","1","0","2","2","3","1","0","1","1","1","3","2","2","1","3","3","3","3","2","1","2","2","3","1","3","1483","","w","","true","practice","6","up","down","1","w","1","0","1666105538964","","","","","","","",""
"","html-keyboard-response","29","171522","0.0-2.7-0.7","077","20","f","1666105369758","750","q","q","Only if I get the answer right","You win money","A fixed time limit","5","female","i tried to look at which ball was the odd one and took some breaks","it was quite fast so difficult to choose the right one all the time","2","1","1","0","2","1","0","3","2","2","2","3","1","1","0","1","0","0","1","1","0","0","3","1","1","1","1","1","1","2","1","1","1","1","1","2","1","0","1","0","2","2","3","1","0","1","1","1","3","2","2","1","3","3","3","3","2","1","2","2","3","1","3","2659.399999976158","<br><br><br><br><table><tr><td><img src=static/images/oddball_down.png></td><td><img src=static/images/oddball_up.png></td><td><img src=static/images/oddball_down.png></td></tr></table>","87","1","","","","","","","","","","","","","","","","","",""
"","html-keyboard-response","30","174035","0.0-2.7-1.7","077","20","f","1666105369758","750","q","q","Only if I get the answer right","You win money","A fixed time limit","5","female","i tried to look at which ball was the odd one and took some breaks","it was quite fast so difficult to choose the right one all the time","2","1","1","0","2","1","0","3","2","2","2","3","1","1","0","1","0","0","1","1","0","0","3","1","1","1","1","1","1","2","1","1","1","1","1","2","1","0","1","0","2","2","3","1","0","1","1","1","3","2","2","1","3","3","3","3","2","1","2","2","3","1","3","null","<div style=""font-size:75px;""><b>Correct</b></div>","null","","","","","","","","","","","","","","","","","","",""
"","html-keyboard-response","31","175040","0.0-2.7-2.7","077","20","f","1666105369758","750","q","q","Only if I get the answer right","You win money","A fixed time limit","5","female","i tried to look at which ball was the odd one and took some breaks","it was quite fast so difficult to choose the right one all the time","2","1","1","0","2","1","0","3","2","2","2","3","1","1","0","1","0","0","1","1","0","0","3","1","1","1","1","1","1","2","1","1","1","1","1","2","1","0","1","0","2","2","3","1","0","1","1","1","3","2","2","1","3","3","3","3","2","1","2","2","3","1","3","2659.399999976158","","w","","true","practice","7","down","up","1","w","1","0","1666105545142","","","","","","","",""
"","html-keyboard-response","32","176209","0.0-2.8-0.8","077","20","f","1666105369758","750","q","q","Only if I get the answer right","You win money","A fixed time limit","5","female","i tried to look at which ball was the odd one and took some breaks","it was quite fast so difficult to choose the right one all the time","2","1","1","0","2","1","0","3","2","2","2","3","1","1","0","1","0","0","1","1","0","0","3","1","1","1","1","1","1","2","1","1","1","1","1","2","1","0","1","0","2","2","3","1","0","1","1","1","3","2","2","1","3","3","3","3","2","1","2","2","3","1","3","1168.9000000357628","<br><br><br><br><table><tr><td><img src=static/images/oddball_up.png></td><td><img src=static/images/oddball_down.png></td><td><img src=static/images/oddball_down.png></td></tr></table>","81","1","","","","","","","","","","","","","","","","","",""
"","html-keyboard-response","33","178712","0.0-2.8-1.8","077","20","f","1666105369758","750","q","q","Only if I get the answer right","You win money","A fixed time limit","5","female","i tried to look at which ball was the odd one and took some breaks","it was quite fast so difficult to choose the right one all the time","2","1","1","0","2","1","0","3","2","2","2","3","1","1","0","1","0","0","1","1","0","0","3","1","1","1","1","1","1","2","1","1","1","1","1","2","1","0","1","0","2","2","3","1","0","1","1","1","3","2","2","1","3","3","3","3","2","1","2","2","3","1","3","null","<div style=""font-size:75px;""><b>Correct</b></div>","null","","","","","","","","","","","","","","","","","","",""
"","html-keyboard-response","34","179716","0.0-2.8-2.8","077","20","f","1666105369758","750","q","q","Only if I get the answer right","You win money","A fixed time limit","5","female","i tried to look at which ball was the odd one and took some breaks","it was quite fast so difficult to choose the right one all the time","2","1","1","0","2","1","0","3","2","2","2","3","1","1","0","1","0","0","1","1","0","0","3","1","1","1","1","1","1","2","1","1","1","1","1","2","1","0","1","0","2","2","3","1","0","1","1","1","3","2","2","1","3","3","3","3","2","1","2","2","3","1","3","1168.9000000357628","","q","","true","practice","8","down","up","0","q","1","0","1666105549818","","","","","","","",""
"","html-keyboard-response","35","181145","0.0-2.9-0.9","077","20","f","1666105369758","750","q","q","Only if I get the answer right","You win money","A fixed time limit","5","female","i tried to look at which ball was the odd one and took some breaks","it was quite fast so difficult to choose the right one all the time","2","1","1","0","2","1","0","3","2","2","2","3","1","1","0","1","0","0","1","1","0","0","3","1","1","1","1","1","1","2","1","1","1","1","1","2","1","0","1","0","2","2","3","1","0","1","1","1","3","2","2","1","3","3","3","3","2","1","2","2","3","1","3","1428.6000000238419","<br><br><br><br><table><tr><td><img src=static/images/oddball_up.png></td><td><img src=static/images/oddball_down.png></td><td><img src=static/images/oddball_down.png></td></tr></table>","81","1","","","","","","","","","","","","","","","","","",""
"","html-keyboard-response","36","183653","0.0-2.9-1.9","077","20","f","1666105369758","750","q","q","Only if I get the answer right","You win money","A fixed time limit","5","female","i tried to look at which ball was the odd one and took some breaks","it was quite fast so difficult to choose the right one all the time","2","1","1","0","2","1","0","3","2","2","2","3","1","1","0","1","0","0","1","1","0","0","3","1","1","1","1","1","1","2","1","1","1","1","1","2","1","0","1","0","2","2","3","1","0","1","1","1","3","2","2","1","3","3","3","3","2","1","2","2","3","1","3","null","<div style=""font-size:75px;""><b>Correct</b></div>","null","","","","","","","","","","","","","","","","","","",""
"","html-keyboard-response","37","184657","0.0-2.9-2.9","077","20","f","1666105369758","750","q","q","Only if I get the answer right","You win money","A fixed time limit","5","female","i tried to look at which ball was the odd one and took some breaks","it was quite fast so difficult to choose the right one all the time","2","1","1","0","2","1","0","3","2","2","2","3","1","1","0","1","0","0","1","1","0","0","3","1","1","1","1","1","1","2","1","1","1","1","1","2","1","0","1","0","2","2","3","1","0","1","1","1","3","2","2","1","3","3","3","3","2","1","2","2","3","1","3","1428.6000000238419","","q","","true","practice","9","down","up","0","q","1","0","1666105554759","","","","","","","",""
"","html-keyboard-response","38","186385","0.0-2.10-0.10","077","20","f","1666105369758","750","q","q","Only if I get the answer right","You win money","A fixed time limit","5","female","i tried to look at which ball was the odd one and took some breaks","it was quite fast so difficult to choose the right one all the time","2","1","1","0","2","1","0","3","2","2","2","3","1","1","0","1","0","0","1","1","0","0","3","1","1","1","1","1","1","2","1","1","1","1","1","2","1","0","1","0","2","2","3","1","0","1","1","1","3","2","2","1","3","3","3","3","2","1","2","2","3","1","3","1727.5","<br><br><br><br><table><tr><td><img src=static/images/oddball_up.png></td><td><img src=static/images/oddball_down.png></td><td><img src=static/images/oddball_down.png></td></tr></table>","81","1","","","","","","","","","","","","","","","","","",""
"","html-keyboard-response","39","188897","0.0-2.10-1.10","077","20","f","1666105369758","750","q","q","Only if I get the answer right","You win money","A fixed time limit","5","female","i tried to look at which ball was the odd one and took some breaks","it was quite fast so difficult to choose the right one all the time","2","1","1","0","2","1","0","3","2","2","2","3","1","1","0","1","0","0","1","1","0","0","3","1","1","1","1","1","1","2","1","1","1","1","1","2","1","0","1","0","2","2","3","1","0","1","1","1","3","2","2","1","3","3","3","3","2","1","2","2","3","1","3","null","<div style=""font-size:75px;""><b>Correct</b></div>","null","","","","","","","","","","","","","","","","","","",""
"","html-keyboard-response","40","189904","0.0-2.10-2.10","077","20","f","1666105369758","750","q","q","Only if I get the answer right","You win money","A fixed time limit","5","female","i tried to look at which ball was the odd one and took some breaks","it was quite fast so difficult to choose the right one all the time","2","1","1","0","2","1","0","3","2","2","2","3","1","1","0","1","0","0","1","1","0","0","3","1","1","1","1","1","1","2","1","1","1","1","1","2","1","0","1","0","2","2","3","1","0","1","1","1","3","2","2","1","3","3","3","3","2","1","2","2","3","1","3","1727.5","","q","","true","practice","10","down","up","0","q","1","0","1666105560006","","","","","","","",""
"","html-keyboard-response","41","193008","0.0-2.11-0.11","077","20","f","1666105369758","750","q","q","Only if I get the answer right","You win money","A fixed time limit","5","female","i tried to look at which ball was the odd one and took some breaks","it was quite fast so difficult to choose the right one all the time","2","1","1","0","2","1","0","3","2","2","2","3","1","1","0","1","0","0","1","1","0","0","3","1","1","1","1","1","1","2","1","1","1","1","1","2","1","0","1","0","2","2","3","1","0","1","1","1","3","2","2","1","3","3","3","3","2","1","2","2","3","1","3","3096.300000011921","<br><br><br><br><table><tr><td><img src=static/images/oddball_down.png></td><td><img src=static/images/oddball_down.png></td><td><img src=static/images/oddball_up.png></td></tr></table>","69","1","","","","","","","","","","","","","","","","","",""
"","html-keyboard-response","42","195515","0.0-2.11-1.11","077","20","f","1666105369758","750","q","q","Only if I get the answer right","You win money","A fixed time limit","5","female","i tried to look at which ball was the odd one and took some breaks","it was quite fast so difficult to choose the right one all the time","2","1","1","0","2","1","0","3","2","2","2","3","1","1","0","1","0","0","1","1","0","0","3","1","1","1","1","1","1","2","1","1","1","1","1","2","1","0","1","0","2","2","3","1","0","1","1","1","3","2","2","1","3","3","3","3","2","1","2","2","3","1","3","null","<div style=""font-size:75px;""><b>Correct</b></div>","null","","","","","","","","","","","","","","","","","","",""
"","html-keyboard-response","43","196521","0.0-2.11-2.11","077","20","f","1666105369758","750","q","q","Only if I get the answer right","You win money","A fixed time limit","5","female","i tried to look at which ball was the odd one and took some breaks","it was quite fast so difficult to choose the right one all the time","2","1","1","0","2","1","0","3","2","2","2","3","1","1","0","1","0","0","1","1","0","0","3","1","1","1","1","1","1","2","1","1","1","1","1","2","1","0","1","0","2","2","3","1","0","1","1","1","3","2","2","1","3","3","3","3","2","1","2","2","3","1","3","3096.300000011921","","e","","true","practice","11","down","up","2","e","1","0","1666105566623","","","","","","","",""
"","html-keyboard-response","44","198456","0.0-2.12-0.12","077","20","f","1666105369758","750","q","q","Only if I get the answer right","You win money","A fixed time limit","5","female","i tried to look at which ball was the odd one and took some breaks","it was quite fast so difficult to choose the right one all the time","2","1","1","0","2","1","0","3","2","2","2","3","1","1","0","1","0","0","1","1","0","0","3","1","1","1","1","1","1","2","1","1","1","1","1","2","1","0","1","0","2","2","3","1","0","1","1","1","3","2","2","1","3","3","3","3","2","1","2","2","3","1","3","1934.199999988079","<br><br><br><br><table><tr><td><img src=static/images/oddball_down.png></td><td><img src=static/images/oddball_up.png></td><td><img src=static/images/oddball_down.png></td></tr></table>","87","1","","","","","","","","","","","","","","","","","",""
"","html-keyboard-response","45","200961","0.0-2.12-1.12","077","20","f","1666105369758","750","q","q","Only if I get the answer right","You win money","A fixed time limit","5","female","i tried to look at which ball was the odd one and took some breaks","it was quite fast so difficult to choose the right one all the time","2","1","1","0","2","1","0","3","2","2","2","3","1","1","0","1","0","0","1","1","0","0","3","1","1","1","1","1","1","2","1","1","1","1","1","2","1","0","1","0","2","2","3","1","0","1","1","1","3","2","2","1","3","3","3","3","2","1","2","2","3","1","3","null","<div style=""font-size:75px;""><b>Correct</b></div>","null","","","","","","","","","","","","","","","","","","",""
"","html-keyboard-response","46","201964","0.0-2.12-2.12","077","20","f","1666105369758","750","q","q","Only if I get the answer right","You win money","A fixed time limit","5","female","i tried to look at which ball was the odd one and took some breaks","it was quite fast so difficult to choose the right one all the time","2","1","1","0","2","1","0","3","2","2","2","3","1","1","0","1","0","0","1","1","0","0","3","1","1","1","1","1","1","2","1","1","1","1","1","2","1","0","1","0","2","2","3","1","0","1","1","1","3","2","2","1","3","3","3","3","2","1","2","2","3","1","3","1934.199999988079","","w","","true","practice","12","down","up","1","w","1","0","1666105572066","","","","","","","",""
"","html-keyboard-response","47","203512","0.0-2.13-0.13","077","20","f","1666105369758","750","q","q","Only if I get the answer right","You win money","A fixed time limit","5","female","i tried to look at which ball was the odd one and took some breaks","it was quite fast so difficult to choose the right one all the time","2","1","1","0","2","1","0","3","2","2","2","3","1","1","0","1","0","0","1","1","0","0","3","1","1","1","1","1","1","2","1","1","1","1","1","2","1","0","1","0","2","2","3","1","0","1","1","1","3","2","2","1","3","3","3","3","2","1","2","2","3","1","3","1547.6000000238419","<br><br><br><br><table><tr><td><img src=static/images/oddball_up.png></td><td><img src=static/images/oddball_down.png></td><td><img src=static/images/oddball_down.png></td></tr></table>","81","1","","","","","","","","","","","","","","","","","",""
"","html-keyboard-response","48","206034","0.0-2.13-1.13","077","20","f","1666105369758","750","q","q","Only if I get the answer right","You win money","A fixed time limit","5","female","i tried to look at which ball was the odd one and took some breaks","it was quite fast so difficult to choose the right one all the time","2","1","1","0","2","1","0","3","2","2","2","3","1","1","0","1","0","0","1","1","0","0","3","1","1","1","1","1","1","2","1","1","1","1","1","2","1","0","1","0","2","2","3","1","0","1","1","1","3","2","2","1","3","3","3","3","2","1","2","2","3","1","3","null","<div style=""font-size:75px;""><b>Correct</b></div>","null","","","","","","","","","","","","","","","","","","",""
"","html-keyboard-response","49","207039","0.0-2.13-2.13","077","20","f","1666105369758","750","q","q","Only if I get the answer right","You win money","A fixed time limit","5","female","i tried to look at which ball was the odd one and took some breaks","it was quite fast so difficult to choose the right one all the time","2","1","1","0","2","1","0","3","2","2","2","3","1","1","0","1","0","0","1","1","0","0","3","1","1","1","1","1","1","2","1","1","1","1","1","2","1","0","1","0","2","2","3","1","0","1","1","1","3","2","2","1","3","3","3","3","2","1","2","2","3","1","3","1547.6000000238419","","q","","true","practice","13","down","up","0","q","1","0","1666105577141","","","","","","","",""
"","html-keyboard-response","50","208936","0.0-2.14-0.14","077","20","f","1666105369758","750","q","q","Only if I get the answer right","You win money","A fixed time limit","5","female","i tried to look at which ball was the odd one and took some breaks","it was quite fast so difficult to choose the right one all the time","2","1","1","0","2","1","0","3","2","2","2","3","1","1","0","1","0","0","1","1","0","0","3","1","1","1","1","1","1","2","1","1","1","1","1","2","1","0","1","0","2","2","3","1","0","1","1","1","3","2","2","1","3","3","3","3","2","1","2","2","3","1","3","1896.4000000357628","<br><br><br><br><table><tr><td><img src=static/images/oddball_down.png></td><td><img src=static/images/oddball_up.png></td><td><img src=static/images/oddball_up.png></td></tr></table>","81","1","","","","","","","","","","","","","","","","","",""
"","html-keyboard-response","51","211445","0.0-2.14-1.14","077","20","f","1666105369758","750","q","q","Only if I get the answer right","You win money","A fixed time limit","5","female","i tried to look at which ball was the odd one and took some breaks","it was quite fast so difficult to choose the right one all the time","2","1","1","0","2","1","0","3","2","2","2","3","1","1","0","1","0","0","1","1","0","0","3","1","1","1","1","1","1","2","1","1","1","1","1","2","1","0","1","0","2","2","3","1","0","1","1","1","3","2","2","1","3","3","3","3","2","1","2","2","3","1","3","null","<div style=""font-size:75px;""><b>Correct</b></div>","null","","","","","","","","","","","","","","","","","","",""
"","html-keyboard-response","52","212449","0.0-2.14-2.14","077","20","f","1666105369758","750","q","q","Only if I get the answer right","You win money","A fixed time limit","5","female","i tried to look at which ball was the odd one and took some breaks","it was quite fast so difficult to choose the right one all the time","2","1","1","0","2","1","0","3","2","2","2","3","1","1","0","1","0","0","1","1","0","0","3","1","1","1","1","1","1","2","1","1","1","1","1","2","1","0","1","0","2","2","3","1","0","1","1","1","3","2","2","1","3","3","3","3","2","1","2","2","3","1","3","1896.4000000357628","","q","","true","practice","14","up","down","0","q","1","0","1666105582551","","","","","","","",""
"","html-keyboard-response","53","214368","0.0-2.15-0.15","077","20","f","1666105369758","750","q","q","Only if I get the answer right","You win money","A fixed time limit","5","female","i tried to look at which ball was the odd one and took some breaks","it was quite fast so difficult to choose the right one all the time","2","1","1","0","2","1","0","3","2","2","2","3","1","1","0","1","0","0","1","1","0","0","3","1","1","1","1","1","1","2","1","1","1","1","1","2","1","0","1","0","2","2","3","1","0","1","1","1","3","2","2","1","3","3","3","3","2","1","2","2","3","1","3","1918.1000000238419","<br><br><br><br><table><tr><td><img src=static/images/oddball_up.png></td><td><img src=static/images/oddball_down.png></td><td><img src=static/images/oddball_down.png></td></tr></table>","81","1","","","","","","","","","","","","","","","","","",""
"","html-keyboard-response","54","216873","0.0-2.15-1.15","077","20","f","1666105369758","750","q","q","Only if I get the answer right","You win money","A fixed time limit","5","female","i tried to look at which ball was the odd one and took some breaks","it was quite fast so difficult to choose the right one all the time","2","1","1","0","2","1","0","3","2","2","2","3","1","1","0","1","0","0","1","1","0","0","3","1","1","1","1","1","1","2","1","1","1","1","1","2","1","0","1","0","2","2","3","1","0","1","1","1","3","2","2","1","3","3","3","3","2","1","2","2","3","1","3","null","<div style=""font-size:75px;""><b>Correct</b></div>","null","","","","","","","","","","","","","","","","","","",""
"","html-keyboard-response","55","217879","0.0-2.15-2.15","077","20","f","1666105369758","750","q","q","Only if I get the answer right","You win money","A fixed time limit","5","female","i tried to look at which ball was the odd one and took some breaks","it was quite fast so difficult to choose the right one all the time","2","1","1","0","2","1","0","3","2","2","2","3","1","1","0","1","0","0","1","1","0","0","3","1","1","1","1","1","1","2","1","1","1","1","1","2","1","0","1","0","2","2","3","1","0","1","1","1","3","2","2","1","3","3","3","3","2","1","2","2","3","1","3","1918.1000000238419","","q","","true","practice","15","down","up","0","q","1","0","1666105587981","","","","","","","",""
"","html-keyboard-response","56","219888","0.0-2.16-0.16","077","20","f","1666105369758","750","q","q","Only if I get the answer right","You win money","A fixed time limit","5","female","i tried to look at which ball was the odd one and took some breaks","it was quite fast so difficult to choose the right one all the time","2","1","1","0","2","1","0","3","2","2","2","3","1","1","0","1","0","0","1","1","0","0","3","1","1","1","1","1","1","2","1","1","1","1","1","2","1","0","1","0","2","2","3","1","0","1","1","1","3","2","2","1","3","3","3","3","2","1","2","2","3","1","3","2008.0999999642372","<br><br><br><br><table><tr><td><img src=static/images/oddball_down.png></td><td><img src=static/images/oddball_down.png></td><td><img src=static/images/oddball_up.png></td></tr></table>","69","1","","","","","","","","","","","","","","","","","",""
"","html-keyboard-response","57","222398","0.0-2.16-1.16","077","20","f","1666105369758","750","q","q","Only if I get the answer right","You win money","A fixed time limit","5","female","i tried to look at which ball was the odd one and took some breaks","it was quite fast so difficult to choose the right one all the time","2","1","1","0","2","1","0","3","2","2","2","3","1","1","0","1","0","0","1","1","0","0","3","1","1","1","1","1","1","2","1","1","1","1","1","2","1","0","1","0","2","2","3","1","0","1","1","1","3","2","2","1","3","3","3","3","2","1","2","2","3","1","3","null","<div style=""font-size:75px;""><b>Correct</b></div>","null","","","","","","","","","","","","","","","","","","",""
"","html-keyboard-response","58","223403","0.0-2.16-2.16","077","20","f","1666105369758","750","q","q","Only if I get the answer right","You win money","A fixed time limit","5","female","i tried to look at which ball was the odd one and took some breaks","it was quite fast so difficult to choose the right one all the time","2","1","1","0","2","1","0","3","2","2","2","3","1","1","0","1","0","0","1","1","0","0","3","1","1","1","1","1","1","2","1","1","1","1","1","2","1","0","1","0","2","2","3","1","0","1","1","1","3","2","2","1","3","3","3","3","2","1","2","2","3","1","3","2008.0999999642372","","e","","true","practice","16","down","up","2","e","1","0","1666105593505","","","","","","","",""
"","html-keyboard-response","59","225360","0.0-2.17-0.17","077","20","f","1666105369758","750","q","q","Only if I get the answer right","You win money","A fixed time limit","5","female","i tried to look at which ball was the odd one and took some breaks","it was quite fast so difficult to choose the right one all the time","2","1","1","0","2","1","0","3","2","2","2","3","1","1","0","1","0","0","1","1","0","0","3","1","1","1","1","1","1","2","1","1","1","1","1","2","1","0","1","0","2","2","3","1","0","1","1","1","3","2","2","1","3","3","3","3","2","1","2","2","3","1","3","1956.3999999761581","<br><br><br><br><table><tr><td><img src=static/images/oddball_down.png></td><td><img src=static/images/oddball_up.png></td><td><img src=static/images/oddball_down.png></td></tr></table>","87","1","","","","","","","","","","","","","","","","","",""
"","html-keyboard-response","60","227861","0.0-2.17-1.17","077","20","f","1666105369758","750","q","q","Only if I get the answer right","You win money","A fixed time limit","5","female","i tried to look at which ball was the odd one and took some breaks","it was quite fast so difficult to choose the right one all the time","2","1","1","0","2","1","0","3","2","2","2","3","1","1","0","1","0","0","1","1","0","0","3","1","1","1","1","1","1","2","1","1","1","1","1","2","1","0","1","0","2","2","3","1","0","1","1","1","3","2","2","1","3","3","3","3","2","1","2","2","3","1","3","null","<div style=""font-size:75px;""><b>Correct</b></div>","null","","","","","","","","","","","","","","","","","","",""
"","html-keyboard-response","61","228865","0.0-2.17-2.17","077","20","f","1666105369758","750","q","q","Only if I get the answer right","You win money","A fixed time limit","5","female","i tried to look at which ball was the odd one and took some breaks","it was quite fast so difficult to choose the right one all the time","2","1","1","0","2","1","0","3","2","2","2","3","1","1","0","1","0","0","1","1","0","0","3","1","1","1","1","1","1","2","1","1","1","1","1","2","1","0","1","0","2","2","3","1","0","1","1","1","3","2","2","1","3","3","3","3","2","1","2","2","3","1","3","1956.3999999761581","","w","","true","practice","17","down","up","1","w","1","0","1666105598967","","","","","","","",""
"","html-keyboard-response","62","231160","0.0-2.18-0.18","077","20","f","1666105369758","750","q","q","Only if I get the answer right","You win money","A fixed time limit","5","female","i tried to look at which ball was the odd one and took some breaks","it was quite fast so difficult to choose the right one all the time","2","1","1","0","2","1","0","3","2","2","2","3","1","1","0","1","0","0","1","1","0","0","3","1","1","1","1","1","1","2","1","1","1","1","1","2","1","0","1","0","2","2","3","1","0","1","1","1","3","2","2","1","3","3","3","3","2","1","2","2","3","1","3","2294.399999976158","<br><br><br><br><table><tr><td><img src=static/images/oddball_down.png></td><td><img src=static/images/oddball_down.png></td><td><img src=static/images/oddball_up.png></td></tr></table>","69","1","","","","","","","","","","","","","","","","","",""
"","html-keyboard-response","63","233670","0.0-2.18-1.18","077","20","f","1666105369758","750","q","q","Only if I get the answer right","You win money","A fixed time limit","5","female","i tried to look at which ball was the odd one and took some breaks","it was quite fast so difficult to choose the right one all the time","2","1","1","0","2","1","0","3","2","2","2","3","1","1","0","1","0","0","1","1","0","0","3","1","1","1","1","1","1","2","1","1","1","1","1","2","1","0","1","0","2","2","3","1","0","1","1","1","3","2","2","1","3","3","3","3","2","1","2","2","3","1","3","null","<div style=""font-size:75px;""><b>Correct</b></div>","null","","","","","","","","","","","","","","","","","","",""
"","html-keyboard-response","64","234675","0.0-2.18-2.18","077","20","f","1666105369758","750","q","q","Only if I get the answer right","You win money","A fixed time limit","5","female","i tried to look at which ball was the odd one and took some breaks","it was quite fast so difficult to choose the right one all the time","2","1","1","0","2","1","0","3","2","2","2","3","1","1","0","1","0","0","1","1","0","0","3","1","1","1","1","1","1","2","1","1","1","1","1","2","1","0","1","0","2","2","3","1","0","1","1","1","3","2","2","1","3","3","3","3","2","1","2","2","3","1","3","2294.399999976158","","e","","true","practice","18","down","up","2","e","1","0","1666105604777","","","","","","","",""
"","html-keyboard-response","65","236431","0.0-2.19-0.19","077","20","f","1666105369758","750","q","q","Only if I get the answer right","You win money","A fixed time limit","5","female","i tried to look at which ball was the odd one and took some breaks","it was quite fast so difficult to choose the right one all the time","2","1","1","0","2","1","0","3","2","2","2","3","1","1","0","1","0","0","1","1","0","0","3","1","1","1","1","1","1","2","1","1","1","1","1","2","1","0","1","0","2","2","3","1","0","1","1","1","3","2","2","1","3","3","3","3","2","1","2","2","3","1","3","1756.2000000476837","<br><br><br><br><table><tr><td><img src=static/images/oddball_down.png></td><td><img src=static/images/oddball_up.png></td><td><img src=static/images/oddball_up.png></td></tr></table>","81","1","","","","","","","","","","","","","","","","","",""
"","html-keyboard-response","66","238947","0.0-2.19-1.19","077","20","f","1666105369758","750","q","q","Only if I get the answer right","You win money","A fixed time limit","5","female","i tried to look at which ball was the odd one and took some breaks","it was quite fast so difficult to choose the right one all the time","2","1","1","0","2","1","0","3","2","2","2","3","1","1","0","1","0","0","1","1","0","0","3","1","1","1","1","1","1","2","1","1","1","1","1","2","1","0","1","0","2","2","3","1","0","1","1","1","3","2","2","1","3","3","3","3","2","1","2","2","3","1","3","null","<div style=""font-size:75px;""><b>Correct</b></div>","null","","","","","","","","","","","","","","","","","","",""
"","html-keyboard-response","67","239951","0.0-2.19-2.19","077","20","f","1666105369758","750","q","q","Only if I get the answer right","You win money","A fixed time limit","5","female","i tried to look at which ball was the odd one and took some breaks","it was quite fast so difficult to choose the right one all the time","2","1","1","0","2","1","0","3","2","2","2","3","1","1","0","1","0","0","1","1","0","0","3","1","1","1","1","1","1","2","1","1","1","1","1","2","1","0","1","0","2","2","3","1","0","1","1","1","3","2","2","1","3","3","3","3","2","1","2","2","3","1","3","1756.2000000476837","","q","","true","practice","19","up","down","0","q","1","0","1666105610053","","","","","","","",""
"","image-keyboard-response","68","244952","0.0-3.0-0.0","077","20","f","1666105369758","750","q","q","Only if I get the answer right","You win money","A fixed time limit","5","female","i tried to look at which ball was the odd one and took some breaks","it was quite fast so difficult to choose the right one all the time","2","1","1","0","2","1","0","3","2","2","2","3","1","1","0","1","0","0","1","1","0","0","3","1","1","1","1","1","1","2","1","1","1","1","1","2","1","0","1","0","2","2","3","1","0","1","1","1","3","2","2","1","3","3","3","3","2","1","2","2","3","1","3","5000.300000011921","static/images/instructions/Slide8.png","39","","","","","","","","","","","","","","","","","","",""
"","image-keyboard-response","69","260372","0.0-3.1-0.1","077","20","f","1666105369758","750","q","q","Only if I get the answer right","You win money","A fixed time limit","5","female","i tried to look at which ball was the odd one and took some breaks","it was quite fast so difficult to choose the right one all the time","2","1","1","0","2","1","0","3","2","2","2","3","1","1","0","1","0","0","1","1","0","0","3","1","1","1","1","1","1","2","1","1","1","1","1","2","1","0","1","0","2","2","3","1","0","1","1","1","3","2","2","1","3","3","3","3","2","1","2","2","3","1","3","15420.900000035763","static/images/instructions/Slide9.png","39","","","","","","","","","","","","","","","","","","",""
"","image-keyboard-response","70","271612","0.0-3.2-0.2","077","20","f","1666105369758","750","q","q","Only if I get the answer right","You win money","A fixed time limit","5","female","i tried to look at which ball was the odd one and took some breaks","it was quite fast so difficult to choose the right one all the time","2","1","1","0","2","1","0","3","2","2","2","3","1","1","0","1","0","0","1","1","0","0","3","1","1","1","1","1","1","2","1","1","1","1","1","2","1","0","1","0","2","2","3","1","0","1","1","1","3","2","2","1","3","3","3","3","2","1","2","2","3","1","3","11239.5","static/images/instructions/Slide10.png","39","","","","","","","","","","","","","","","","","","",""
"","image-keyboard-response","71","283388","0.0-3.3-0.3","077","20","f","1666105369758","750","q","q","Only if I get the answer right","You win money","A fixed time limit","5","female","i tried to look at which ball was the odd one and took some breaks","it was quite fast so difficult to choose the right one all the time","2","1","1","0","2","1","0","3","2","2","2","3","1","1","0","1","0","0","1","1","0","0","3","1","1","1","1","1","1","2","1","1","1","1","1","2","1","0","1","0","2","2","3","1","0","1","1","1","3","2","2","1","3","3","3","3","2","1","2","2","3","1","3","11775.199999988079","static/images/instructions/Slide11.png","39","","","","","","","","","","","","","","","","","","",""
"","image-keyboard-response","72","288068","0.0-3.4-0.4","077","20","f","1666105369758","750","q","q","Only if I get the answer right","You win money","A fixed time limit","5","female","i tried to look at which ball was the odd one and took some breaks","it was quite fast so difficult to choose the right one all the time","2","1","1","0","2","1","0","3","2","2","2","3","1","1","0","1","0","0","1","1","0","0","3","1","1","1","1","1","1","2","1","1","1","1","1","2","1","0","1","0","2","2","3","1","0","1","1","1","3","2","2","1","3","3","3","3","2","1","2","2","3","1","3","4679.600000023842","static/images/instructions/Slide12.png","39","","","","","","","","","","","","","","","","","","",""
"","image-keyboard-response","73","294012","0.0-3.5-0.5","077","20","f","1666105369758","750","q","q","Only if I get the answer right","You win money","A fixed time limit","5","female","i tried to look at which ball was the odd one and took some breaks","it was quite fast so difficult to choose the right one all the time","2","1","1","0","2","1","0","3","2","2","2","3","1","1","0","1","0","0","1","1","0","0","3","1","1","1","1","1","1","2","1","1","1","1","1","2","1","0","1","0","2","2","3","1","0","1","1","1","3","2","2","1","3","3","3","3","2","1","2","2","3","1","3","5943.299999952316","static/images/instructions/Slide13.png","39","","","","","","","","","","","","","","","","","","",""
"","image-keyboard-response","74","307780","0.0-3.6-0.6","077","20","f","1666105369758","750","q","q","Only if I get the answer right","You win money","A fixed time limit","5","female","i tried to look at which ball was the odd one and took some breaks","it was quite fast so difficult to choose the right one all the time","2","1","1","0","2","1","0","3","2","2","2","3","1","1","0","1","0","0","1","1","0","0","3","1","1","1","1","1","1","2","1","1","1","1","1","2","1","0","1","0","2","2","3","1","0","1","1","1","3","2","2","1","3","3","3","3","2","1","2","2","3","1","3","13767.299999952316","static/images/instructions/Slide14.png","39","","","","","","","","","","","","","","","","","","",""
"","image-keyboard-response","75","317668","0.0-3.7-0.7","077","20","f","1666105369758","750","q","q","Only if I get the answer right","You win money","A fixed time limit","5","female","i tried to look at which ball was the odd one and took some breaks","it was quite fast so difficult to choose the right one all the time","2","1","1","0","2","1","0","3","2","2","2","3","1","1","0","1","0","0","1","1","0","0","3","1","1","1","1","1","1","2","1","1","1","1","1","2","1","0","1","0","2","2","3","1","0","1","1","1","3","2","2","1","3","3","3","3","2","1","2","2","3","1","3","9887.5","static/images/instructions/Slide15.png","39","","","","","","","","","","","","","","","","","","",""
"","image-keyboard-response","76","339913","0.0-3.8-0.8","077","20","f","1666105369758","750","q","q","Only if I get the answer right","You win money","A fixed time limit","5","female","i tried to look at which ball was the odd one and took some breaks","it was quite fast so difficult to choose the right one all the time","2","1","1","0","2","1","0","3","2","2","2","3","1","1","0","1","0","0","1","1","0","0","3","1","1","1","1","1","1","2","1","1","1","1","1","2","1","0","1","0","2","2","3","1","0","1","1","1","3","2","2","1","3","3","3","3","2","1","2","2","3","1","3","22231.19999998808","static/images/instructions/Slide16.png","39","","","","","","","","","","","","","","","","","","",""
"","image-keyboard-response","77","345905","0.0-3.9-0.9","077","20","f","1666105369758","750","q","q","Only if I get the answer right","You win money","A fixed time limit","5","female","i tried to look at which ball was the odd one and took some breaks","it was quite fast so difficult to choose the right one all the time","2","1","1","0","2","1","0","3","2","2","2","3","1","1","0","1","0","0","1","1","0","0","3","1","1","1","1","1","1","2","1","1","1","1","1","2","1","0","1","0","2","2","3","1","0","1","1","1","3","2","2","1","3","3","3","3","2","1","2","2","3","1","3","5991.199999988079","static/images/instructions/Slide17.png","39","","","","","","","","","","","","","","","","","","",""
"","survey-multi-choice","78","432625","0.0-4.0","077","20","f","1666105369758","750","q","q","Only if I get the answer right","You win money","A fixed time limit","5","female","i tried to look at which ball was the odd one and took some breaks","it was quite fast so difficult to choose the right one all the time","2","1","1","0","2","1","0","3","2","2","2","3","1","1","0","1","0","0","1","1","0","0","3","1","1","1","1","1","1","2","1","1","1","1","1","2","1","0","1","0","2","2","3","1","0","1","1","1","3","2","2","1","3","3","3","3","2","1","2","2","3","1","3","86587.89999997616","","","","","","","","","","","","","","{""q1"":""q"",""q2"":""q"",""q3"":""Only if I get the answer right"",""q4"":""You win money"",""q5"":""A fixed time limit""}","[2,3,4,1,0]","","","","","",""
"","image-keyboard-response","79","452666","0.0-5.0-0.0","077","20","f","1666105369758","750","q","q","Only if I get the answer right","You win money","A fixed time limit","5","female","i tried to look at which ball was the odd one and took some breaks","it was quite fast so difficult to choose the right one all the time","2","1","1","0","2","1","0","3","2","2","2","3","1","1","0","1","0","0","1","1","0","0","3","1","1","1","1","1","1","2","1","1","1","1","1","2","1","0","1","0","2","2","3","1","0","1","1","1","3","2","2","1","3","3","3","3","2","1","2","2","3","1","3","20030.299999952316","static/images/instructions/Slide18.png","39","","","","","","","","","","","","","","","","","","",""
"","html-keyboard-response","80","453673","0.0-6.0-0.0-0.0","077","20","f","1666105369758","750","q","q","Only if I get the answer right","You win money","A fixed time limit","5","female","i tried to look at which ball was the odd one and took some breaks","it was quite fast so difficult to choose the right one all the time","2","1","1","0","2","1","0","3","2","2","2","3","1","1","0","1","0","0","1","1","0","0","3","1","1","1","1","1","1","2","1","1","1","1","1","2","1","0","1","0","2","2","3","1","0","1","1","1","3","2","2","1","3","3","3","3","2","1","2","2","3","1","3","null","<div style=""font-size:75px;"">3</div>","null","","","","","","","","","","","","","","","","","","",""
"","html-keyboard-response","81","454674","0.0-6.0-0.1-0.1","077","20","f","1666105369758","750","q","q","Only if I get the answer right","You win money","A fixed time limit","5","female","i tried to look at which ball was the odd one and took some breaks","it was quite fast so difficult to choose the right one all the time","2","1","1","0","2","1","0","3","2","2","2","3","1","1","0","1","0","0","1","1","0","0","3","1","1","1","1","1","1","2","1","1","1","1","1","2","1","0","1","0","2","2","3","1","0","1","1","1","3","2","2","1","3","3","3","3","2","1","2","2","3","1","3","null","<div style=""font-size:75px;"">2</div>","null","","","","","","","","","","","","","","","","","","",""
"","html-keyboard-response","82","455676","0.0-6.0-0.2-0.2","077","20","f","1666105369758","750","q","q","Only if I get the answer right","You win money","A fixed time limit","5","female","i tried to look at which ball was the odd one and took some breaks","it was quite fast so difficult to choose the right one all the time","2","1","1","0","2","1","0","3","2","2","2","3","1","1","0","1","0","0","1","1","0","0","3","1","1","1","1","1","1","2","1","1","1","1","1","2","1","0","1","0","2","2","3","1","0","1","1","1","3","2","2","1","3","3","3","3","2","1","2","2","3","1","3","null","<div style=""font-size:75px;"">1</div>","null","","","","","","","","","","","","","","","","","","",""
"","html-keyboard-response","83","456428","0.0-6.0-1.0-0.0","077","20","f","1666105369758","750","q","q","Only if I get the answer right","You win money","A fixed time limit","5","female","i tried to look at which ball was the odd one and took some breaks","it was quite fast so difficult to choose the right one all the time","2","1","1","0","2","1","0","3","2","2","2","3","1","1","0","1","0","0","1","1","0","0","3","1","1","1","1","1","1","2","1","1","1","1","1","2","1","0","1","0","2","2","3","1","0","1","1","1","3","2","2","1","3","3","3","3","2","1","2","2","3","1","3","null","<div style=""color:green; font-size:75px;""><b>$0.20</b></div><br><br><br><br><table><tr><td><img src=static/images/oddball_up.png></td><td><img src=static/images/oddball_down.png></td><td><img src=static/images/oddball_down.png></td></tr></table>","null","","","","","","","","","","","","","","","","","","",""
"","html-keyboard-response","84","456543","0.0-6.0-1.0-1.0","077","20","f","1666105369758","750","q","q","Only if I get the answer right","You win money","A fixed time limit","5","female","i tried to look at which ball was the odd one and took some breaks","it was quite fast so difficult to choose the right one all the time","2","1","1","0","2","1","0","3","2","2","2","3","1","1","0","1","0","0","1","1","0","0","3","1","1","1","1","1","1","2","1","1","1","1","1","2","1","0","1","0","2","2","3","1","0","1","1","1","3","2","2","1","3","3","3","3","2","1","2","2","3","1","3","null","","null","","true","0","0","down","up","0","q","0","0","1666105826645","","","false","60","0","0","0.2","true"
"","html-keyboard-response","85","456793","0.0-6.0-1.1-0.1","077","20","f","1666105369758","750","q","q","Only if I get the answer right","You win money","A fixed time limit","5","female","i tried to look at which ball was the odd one and took some breaks","it was quite fast so difficult to choose the right one all the time","2","1","1","0","2","1","0","3","2","2","2","3","1","1","0","1","0","0","1","1","0","0","3","1","1","1","1","1","1","2","1","1","1","1","1","2","1","0","1","0","2","2","3","1","0","1","1","1","3","2","2","1","3","3","3","3","2","1","2","2","3","1","3","249.9000000357628","<div style=""color:green; font-size:75px;""><b>$0.20</b></div><br><br><br><br><table><tr><td><img src=static/images/oddball_up.png></td><td><img src=static/images/oddball_up.png></td><td><img src=static/images/oddball_down.png></td></tr></table>","81","1","","","","","","","","","","","","","","","","","",""
"","html-keyboard-response","86","456906","0.0-6.0-1.1-1.1","077","20","f","1666105369758","750","q","q","Only if I get the answer right","You win money","A fixed time limit","5","female","i tried to look at which ball was the odd one and took some breaks","it was quite fast so difficult to choose the right one all the time","2","1","1","0","2","1","0","3","2","2","2","3","1","1","0","1","0","0","1","1","0","0","3","1","1","1","1","1","1","2","1","1","1","1","1","2","1","0","1","0","2","2","3","1","0","1","1","1","3","2","2","1","3","3","3","3","2","1","2","2","3","1","3","249.9000000357628","","q","","true","0","1","up","down","2","e","0","0","1666105827008","","","false","60","1","0","0.2","false"
"","html-keyboard-response","87","457662","0.0-6.0-1.2-0.2","077","20","f","1666105369758","750","q","q","Only if I get the answer right","You win money","A fixed time limit","5","female","i tried to look at which ball was the odd one and took some breaks","it was quite fast so difficult to choose the right one all the time","2","1","1","0","2","1","0","3","2","2","2","3","1","1","0","1","0","0","1","1","0","0","3","1","1","1","1","1","1","2","1","1","1","1","1","2","1","0","1","0","2","2","3","1","0","1","1","1","3","2","2","1","3","3","3","3","2","1","2","2","3","1","3","null","<div style=""color:green; font-size:75px;""><b>$0.20</b></div><br><br><br><br><table><tr><td><img src=static/images/oddball_up.png></td><td><img src=static/images/oddball_up.png></td><td><img src=static/images/oddball_down.png></td></tr></table>","null","","","","","","","","","","","","","","","","","","",""
"","html-keyboard-response","88","457778","0.0-6.0-1.2-1.2","077","20","f","1666105369758","750","q","q","Only if I get the answer right","You win money","A fixed time limit","5","female","i tried to look at which ball was the odd one and took some breaks","it was quite fast so difficult to choose the right one all the time","2","1","1","0","2","1","0","3","2","2","2","3","1","1","0","1","0","0","1","1","0","0","3","1","1","1","1","1","1","2","1","1","1","1","1","2","1","0","1","0","2","2","3","1","0","1","1","1","3","2","2","1","3","3","3","3","2","1","2","2","3","1","3","null","","null","","true","0","2","up","down","2","e","0","0","1666105827880","","","false","60","2","0","0.2","true"
"","html-keyboard-response","89","457793","0.0-6.0-1.3-0.3","077","20","f","1666105369758","750","q","q","Only if I get the answer right","You win money","A fixed time limit","5","female","i tried to look at which ball was the odd one and took some breaks","it was quite fast so difficult to choose the right one all the time","2","1","1","0","2","1","0","3","2","2","2","3","1","1","0","1","0","0","1","1","0","0","3","1","1","1","1","1","1","2","1","1","1","1","1","2","1","0","1","0","2","2","3","1","0","1","1","1","3","2","2","1","3","3","3","3","2","1","2","2","3","1","3","14.5","<div style=""color:green; font-size:75px;""><b>$0.20</b></div><br><br><br><br><table><tr><td><img src=static/images/oddball_up.png></td><td><img src=static/images/oddball_down.png></td><td><img src=static/images/oddball_down.png></td></tr></table>","69","1","","","","","","","","","","","","","","","","","",""
"","html-keyboard-response","90","457908","0.0-6.0-1.3-1.3","077","20","f","1666105369758","750","q","q","Only if I get the answer right","You win money","A fixed time limit","5","female","i tried to look at which ball was the odd one and took some breaks","it was quite fast so difficult to choose the right one all the time","2","1","1","0","2","1","0","3","2","2","2","3","1","1","0","1","0","0","1","1","0","0","3","1","1","1","1","1","1","2","1","1","1","1","1","2","1","0","1","0","2","2","3","1","0","1","1","1","3","2","2","1","3","3","3","3","2","1","2","2","3","1","3","14.5","","e","","true","0","3","down","up","0","q","0","0","1666105828010","","","false","60","3","0","0.2","false"
"","html-keyboard-response","91","458664","0.0-6.0-1.4-0.4","077","20","f","1666105369758","750","q","q","Only if I get the answer right","You win money","A fixed time limit","5","female","i tried to look at which ball was the odd one and took some breaks","it was quite fast so difficult to choose the right one all the time","2","1","1","0","2","1","0","3","2","2","2","3","1","1","0","1","0","0","1","1","0","0","3","1","1","1","1","1","1","2","1","1","1","1","1","2","1","0","1","0","2","2","3","1","0","1","1","1","3","2","2","1","3","3","3","3","2","1","2","2","3","1","3","null","<div style=""color:green; font-size:75px;""><b>$0.20</b></div><br><br><br><br><table><tr><td><img src=static/images/oddball_up.png></td><td><img src=static/images/oddball_up.png></td><td><img src=static/images/oddball_down.png></td></tr></table>","null","","","","","","","","","","","","","","","","","","",""
"","html-keyboard-response","92","458782","0.0-6.0-1.4-1.4","077","20","f","1666105369758","750","q","q","Only if I get the answer right","You win money","A fixed time limit","5","female","i tried to look at which ball was the odd one and took some breaks","it was quite fast so difficult to choose the right one all the time","2","1","1","0","2","1","0","3","2","2","2","3","1","1","0","1","0","0","1","1","0","0","3","1","1","1","1","1","1","2","1","1","1","1","1","2","1","0","1","0","2","2","3","1","0","1","1","1","3","2","2","1","3","3","3","3","2","1","2","2","3","1","3","null","","null","","true","0","4","up","down","2","e","0","0","1666105828884","","","false","60","4","0","0.2","true"
"","html-keyboard-response","93","458921","0.0-6.0-1.5-0.5","077","20","f","1666105369758","750","q","q","Only if I get the answer right","You win money","A fixed time limit","5","female","i tried to look at which ball was the odd one and took some breaks","it was quite fast so difficult to choose the right one all the time","2","1","1","0","2","1","0","3","2","2","2","3","1","1","0","1","0","0","1","1","0","0","3","1","1","1","1","1","1","2","1","1","1","1","1","2","1","0","1","0","2","2","3","1","0","1","1","1","3","2","2","1","3","3","3","3","2","1","2","2","3","1","3","139.19999998807907","<div style=""color:green; font-size:75px;""><b>$0.20</b></div><br><br><br><br><table><tr><td><img src=static/images/oddball_down.png></td><td><img src=static/images/oddball_up.png></td><td><img src=static/images/oddball_down.png></td></tr></table>","69","1","","","","","","","","","","","","","","","","","",""
"","html-keyboard-response","94","459043","0.0-6.0-1.5-1.5","077","20","f","1666105369758","750","q","q","Only if I get the answer right","You win money","A fixed time limit","5","female","i tried to look at which ball was the odd one and took some breaks","it was quite fast so difficult to choose the right one all the time","2","1","1","0","2","1","0","3","2","2","2","3","1","1","0","1","0","0","1","1","0","0","3","1","1","1","1","1","1","2","1","1","1","1","1","2","1","0","1","0","2","2","3","1","0","1","1","1","3","2","2","1","3","3","3","3","2","1","2","2","3","1","3","139.19999998807907","","e","","true","0","5","down","up","1","w","0","0","1666105829145","","","false","60","5","0","0.2","false"
"","html-keyboard-response","95","459799","0.0-6.0-1.6-0.6","077","20","f","1666105369758","750","q","q","Only if I get the answer right","You win money","A fixed time limit","5","female","i tried to look at which ball was the odd one and took some breaks","it was quite fast so difficult to choose the right one all the time","2","1","1","0","2","1","0","3","2","2","2","3","1","1","0","1","0","0","1","1","0","0","3","1","1","1","1","1","1","2","1","1","1","1","1","2","1","0","1","0","2","2","3","1","0","1","1","1","3","2","2","1","3","3","3","3","2","1","2","2","3","1","3","null","<div style=""color:green; font-size:75px;""><b>$0.20</b></div><br><br><br><br><table><tr><td><img src=static/images/oddball_down.png></td><td><img src=static/images/oddball_up.png></td><td><img src=static/images/oddball_up.png></td></tr></table>","null","","","","","","","","","","","","","","","","","","",""
"","html-keyboard-response","96","459917","0.0-6.0-1.6-1.6","077","20","f","1666105369758","750","q","q","Only if I get the answer right","You win money","A fixed time limit","5","female","i tried to look at which ball was the odd one and took some breaks","it was quite fast so difficult to choose the right one all the time","2","1","1","0","2","1","0","3","2","2","2","3","1","1","0","1","0","0","1","1","0","0","3","1","1","1","1","1","1","2","1","1","1","1","1","2","1","0","1","0","2","2","3","1","0","1","1","1","3","2","2","1","3","3","3","3","2","1","2","2","3","1","3","null","","null","","true","0","6","up","down","0","q","0","0","1666105830019","","","false","60","6","0","0.2","true"
"","html-keyboard-response","97","460433","0.0-6.0-1.7-0.7","077","20","f","1666105369758","750","q","q","Only if I get the answer right","You win money","A fixed time limit","5","female","i tried to look at which ball was the odd one and took some breaks","it was quite fast so difficult to choose the right one all the time","2","1","1","0","2","1","0","3","2","2","2","3","1","1","0","1","0","0","1","1","0","0","3","1","1","1","1","1","1","2","1","1","1","1","1","2","1","0","1","0","2","2","3","1","0","1","1","1","3","2","2","1","3","3","3","3","2","1","2","2","3","1","3","515.6000000238419","<div style=""color:green; font-size:75px;""><b>$0.20</b></div><br><br><br><br><table><tr><td><img src=static/images/oddball_up.png></td><td><img src=static/images/oddball_up.png></td><td><img src=static/images/oddball_down.png></td></tr></table>","69","1","","","","","","","","","","","","","","","","","",""
"","html-keyboard-response","98","460547","0.0-6.0-1.7-1.7","077","20","f","1666105369758","750","q","q","Only if I get the answer right","You win money","A fixed time limit","5","female","i tried to look at which ball was the odd one and took some breaks","it was quite fast so difficult to choose the right one all the time","2","1","1","0","2","1","0","3","2","2","2","3","1","1","0","1","0","0","1","1","0","0","3","1","1","1","1","1","1","2","1","1","1","1","1","2","1","0","1","0","2","2","3","1","0","1","1","1","3","2","2","1","3","3","3","3","2","1","2","2","3","1","3","515.6000000238419","","e","","true","0","7","up","down","2","e","1","0","1666105830649","","","false","60","7","0","0.2","false"
"","html-keyboard-response","99","461303","0.0-6.0-1.8-0.8","077","20","f","1666105369758","750","q","q","Only if I get the answer right","You win money","A fixed time limit","5","female","i tried to look at which ball was the odd one and took some breaks","it was quite fast so difficult to choose the right one all the time","2","1","1","0","2","1","0","3","2","2","2","3","1","1","0","1","0","0","1","1","0","0","3","1","1","1","1","1","1","2","1","1","1","1","1","2","1","0","1","0","2","2","3","1","0","1","1","1","3","2","2","1","3","3","3","3","2","1","2","2","3","1","3","null","<div style=""color:green; font-size:75px;""><b>$0.20</b></div><br><br><br><br><table><tr><td><img src=static/images/oddball_up.png></td><td><img src=static/images/oddball_down.png></td><td><img src=static/images/oddball_down.png></td></tr></table>","null","","","","","","","","","","","","","","","","","","",""
"","html-keyboard-response","100","461419","0.0-6.0-1.8-1.8","077","20","f","1666105369758","750","q","q","Only if I get the answer right","You win money","A fixed time limit","5","female","i tried to look at which ball was the odd one and took some breaks","it was quite fast so difficult to choose the right one all the time","2","1","1","0","2","1","0","3","2","2","2","3","1","1","0","1","0","0","1","1","0","0","3","1","1","1","1","1","1","2","1","1","1","1","1","2","1","0","1","0","2","2","3","1","0","1","1","1","3","2","2","1","3","3","3","3","2","1","2","2","3","1","3","null","","null","","true","0","8","down","up","0","q","0","0","1666105831521","","","false","60","8","0.016666666666666666","0.2","true"
"","html-keyboard-response","101","462089","0.0-6.0-1.9-0.9","077","20","f","1666105369758","750","q","q","Only if I get the answer right","You win money","A fixed time limit","5","female","i tried to look at which ball was the odd one and took some breaks","it was quite fast so difficult to choose the right one all the time","2","1","1","0","2","1","0","3","2","2","2","3","1","1","0","1","0","0","1","1","0","0","3","1","1","1","1","1","1","2","1","1","1","1","1","2","1","0","1","0","2","2","3","1","0","1","1","1","3","2","2","1","3","3","3","3","2","1","2","2","3","1","3","670.1999999880791","<div style=""color:green; font-size:75px;""><b>$0.20</b></div><br><br><br><br><table><tr><td><img src=static/images/oddball_up.png></td><td><img src=static/images/oddball_up.png></td><td><img src=static/images/oddball_down.png></td></tr></table>","69","1","","","","","","","","","","","","","","","","","",""
"","html-keyboard-response","102","462199","0.0-6.0-1.9-1.9","077","20","f","1666105369758","750","q","q","Only if I get the answer right","You win money","A fixed time limit","5","female","i tried to look at which ball was the odd one and took some breaks","it was quite fast so difficult to choose the right one all the time","2","1","1","0","2","1","0","3","2","2","2","3","1","1","0","1","0","0","1","1","0","0","3","1","1","1","1","1","1","2","1","1","1","1","1","2","1","0","1","0","2","2","3","1","0","1","1","1","3","2","2","1","3","3","3","3","2","1","2","2","3","1","3","670.1999999880791","","e","","true","0","9","up","down","2","e","1","0","1666105832301","","","false","60","9","0.016666666666666666","0.2","false"
"","html-keyboard-response","103","462913","0.0-6.0-1.10-0.10","077","20","f","1666105369758","750","q","q","Only if I get the answer right","You win money","A fixed time limit","5","female","i tried to look at which ball was the odd one and took some breaks","it was quite fast so difficult to choose the right one all the time","2","1","1","0","2","1","0","3","2","2","2","3","1","1","0","1","0","0","1","1","0","0","3","1","1","1","1","1","1","2","1","1","1","1","1","2","1","0","1","0","2","2","3","1","0","1","1","1","3","2","2","1","3","3","3","3","2","1","2","2","3","1","3","713.6000000238419","<div style=""color:green; font-size:75px;""><b>$0.20</b></div><br><br><br><br><table><tr><td><img src=static/images/oddball_down.png></td><td><img src=static/images/oddball_up.png></td><td><img src=static/images/oddball_up.png></td></tr></table>","81","1","","","","","","","","","","","","","","","","","",""
"","html-keyboard-response","104","463017","0.0-6.0-1.10-1.10","077","20","f","1666105369758","750","q","q","Only if I get the answer right","You win money","A fixed time limit","5","female","i tried to look at which ball was the odd one and took some breaks","it was quite fast so difficult to choose the right one all the time","2","1","1","0","2","1","0","3","2","2","2","3","1","1","0","1","0","0","1","1","0","0","3","1","1","1","1","1","1","2","1","1","1","1","1","2","1","0","1","0","2","2","3","1","0","1","1","1","3","2","2","1","3","3","3","3","2","1","2","2","3","1","3","713.6000000238419","","q","","true","0","10","up","down","0","q","1","0","1666105833119","","","false","60","10","0.03333333333333333","0.2","false"
"","html-keyboard-response","105","463773","0.0-6.0-1.11-0.11","077","20","f","1666105369758","750","q","q","Only if I get the answer right","You win money","A fixed time limit","5","female","i tried to look at which ball was the odd one and took some breaks","it was quite fast so difficult to choose the right one all the time","2","1","1","0","2","1","0","3","2","2","2","3","1","1","0","1","0","0","1","1","0","0","3","1","1","1","1","1","1","2","1","1","1","1","1","2","1","0","1","0","2","2","3","1","0","1","1","1","3","2","2","1","3","3","3","3","2","1","2","2","3","1","3","null","<div style=""color:green; font-size:75px;""><b>$0.20</b></div><br><br><br><br><table><tr><td><img src=static/images/oddball_up.png></td><td><img src=static/images/oddball_down.png></td><td><img src=static/images/oddball_up.png></td></tr></table>","null","","","","","","","","","","","","","","","","","","",""
"","html-keyboard-response","106","463891","0.0-6.0-1.11-1.11","077","20","f","1666105369758","750","q","q","Only if I get the answer right","You win money","A fixed time limit","5","female","i tried to look at which ball was the odd one and took some breaks","it was quite fast so difficult to choose the right one all the time","2","1","1","0","2","1","0","3","2","2","2","3","1","1","0","1","0","0","1","1","0","0","3","1","1","1","1","1","1","2","1","1","1","1","1","2","1","0","1","0","2","2","3","1","0","1","1","1","3","2","2","1","3","3","3","3","2","1","2","2","3","1","3","null","","null","","true","0","11","up","down","1","w","0","0","1666105833993","","","false","60","11","0.05","0.2","true"
"","html-keyboard-response","107","464074","0.0-6.0-1.12-0.12","077","20","f","1666105369758","750","q","q","Only if I get the answer right","You win money","A fixed time limit","5","female","i tried to look at which ball was the odd one and took some breaks","it was quite fast so difficult to choose the right one all the time","2","1","1","0","2","1","0","3","2","2","2","3","1","1","0","1","0","0","1","1","0","0","3","1","1","1","1","1","1","2","1","1","1","1","1","2","1","0","1","0","2","2","3","1","0","1","1","1","3","2","2","1","3","3","3","3","2","1","2","2","3","1","3","181.69999998807907","<div style=""color:green; font-size:75px;""><b>$0.20</b></div><br><br><br><br><table><tr><td><img src=static/images/oddball_up.png></td><td><img src=static/images/oddball_down.png></td><td><img src=static/images/oddball_up.png></td></tr></table>","87","1","","","","","","","","","","","","","","","","","",""
"","html-keyboard-response","108","464186","0.0-6.0-1.12-1.12","077","20","f","1666105369758","750","q","q","Only if I get the answer right","You win money","A fixed time limit","5","female","i tried to look at which ball was the odd one and took some breaks","it was quite fast so difficult to choose the right one all the time","2","1","1","0","2","1","0","3","2","2","2","3","1","1","0","1","0","0","1","1","0","0","3","1","1","1","1","1","1","2","1","1","1","1","1","2","1","0","1","0","2","2","3","1","0","1","1","1","3","2","2","1","3","3","3","3","2","1","2","2","3","1","3","181.69999998807907","","w","","true","0","12","up","down","1","w","1","0","1666105834289","","","false","60","12","0.05","0.2","false"
"","html-keyboard-response","109","464849","0.0-6.0-1.13-0.13","077","20","f","1666105369758","750","q","q","Only if I get the answer right","You win money","A fixed time limit","5","female","i tried to look at which ball was the odd one and took some breaks","it was quite fast so difficult to choose the right one all the time","2","1","1","0","2","1","0","3","2","2","2","3","1","1","0","1","0","0","1","1","0","0","3","1","1","1","1","1","1","2","1","1","1","1","1","2","1","0","1","0","2","2","3","1","0","1","1","1","3","2","2","1","3","3","3","3","2","1","2","2","3","1","3","662.5","<div style=""color:green; font-size:75px;""><b>$0.20</b></div><br><br><br><br><table><tr><td><img src=static/images/oddball_down.png></td><td><img src=static/images/oddball_up.png></td><td><img src=static/images/oddball_up.png></td></tr></table>","81","1","","","","","","","","","","","","","","","","","",""
"","html-keyboard-response","110","464954","0.0-6.0-1.13-1.13","077","20","f","1666105369758","750","q","q","Only if I get the answer right","You win money","A fixed time limit","5","female","i tried to look at which ball was the odd one and took some breaks","it was quite fast so difficult to choose the right one all the time","2","1","1","0","2","1","0","3","2","2","2","3","1","1","0","1","0","0","1","1","0","0","3","1","1","1","1","1","1","2","1","1","1","1","1","2","1","0","1","0","2","2","3","1","0","1","1","1","3","2","2","1","3","3","3","3","2","1","2","2","3","1","3","662.5","","q","","true","0","13","up","down","0","q","1","0","1666105835056","","","false","60","13","0.06666666666666667","0.2","false"
"","html-keyboard-response","111","465632","0.0-6.0-1.14-0.14","077","20","f","1666105369758","750","q","q","Only if I get the answer right","You win money","A fixed time limit","5","female","i tried to look at which ball was the odd one and took some breaks","it was quite fast so difficult to choose the right one all the time","2","1","1","0","2","1","0","3","2","2","2","3","1","1","0","1","0","0","1","1","0","0","3","1","1","1","1","1","1","2","1","1","1","1","1","2","1","0","1","0","2","2","3","1","0","1","1","1","3","2","2","1","3","3","3","3","2","1","2","2","3","1","3","677.7000000476837","<div style=""color:green; font-size:75px;""><b>$0.20</b></div><br><br><br><br><table><tr><td><img src=static/images/oddball_up.png></td><td><img src=static/images/oddball_down.png></td><td><img src=static/images/oddball_up.png></td></tr></table>","87","1","","","","","","","","","","","","","","","","","",""
"","html-keyboard-response","112","465739","0.0-6.0-1.14-1.14","077","20","f","1666105369758","750","q","q","Only if I get the answer right","You win money","A fixed time limit","5","female","i tried to look at which ball was the odd one and took some breaks","it was quite fast so difficult to choose the right one all the time","2","1","1","0","2","1","0","3","2","2","2","3","1","1","0","1","0","0","1","1","0","0","3","1","1","1","1","1","1","2","1","1","1","1","1","2","1","0","1","0","2","2","3","1","0","1","1","1","3","2","2","1","3","3","3","3","2","1","2","2","3","1","3","677.7000000476837","","w","","true","0","14","up","down","1","w","1","0","1666105835841","","","false","60","14","0.08333333333333333","0.2","false"
"","html-keyboard-response","113","466321","0.0-6.0-1.15-0.15","077","20","f","1666105369758","750","q","q","Only if I get the answer right","You win money","A fixed time limit","5","female","i tried to look at which ball was the odd one and took some breaks","it was quite fast so difficult to choose the right one all the time","2","1","1","0","2","1","0","3","2","2","2","3","1","1","0","1","0","0","1","1","0","0","3","1","1","1","1","1","1","2","1","1","1","1","1","2","1","0","1","0","2","2","3","1","0","1","1","1","3","2","2","1","3","3","3","3","2","1","2","2","3","1","3","581.3999999761581","<div style=""color:green; font-size:75px;""><b>$0.20</b></div><br><br><br><br><table><tr><td><img src=static/images/oddball_up.png></td><td><img src=static/images/oddball_up.png></td><td><img src=static/images/oddball_down.png></td></tr></table>","69","1","","","","","","","","","","","","","","","","","",""
"","html-keyboard-response","114","466424","0.0-6.0-1.15-1.15","077","20","f","1666105369758","750","q","q","Only if I get the answer right","You win money","A fixed time limit","5","female","i tried to look at which ball was the odd one and took some breaks","it was quite fast so difficult to choose the right one all the time","2","1","1","0","2","1","0","3","2","2","2","3","1","1","0","1","0","0","1","1","0","0","3","1","1","1","1","1","1","2","1","1","1","1","1","2","1","0","1","0","2","2","3","1","0","1","1","1","3","2","2","1","3","3","3","3","2","1","2","2","3","1","3","581.3999999761581","","e","","true","0","15","up","down","2","e","1","0","1666105836526","","","false","60","15","0.1","0.2","false"
"","html-keyboard-response","115","467057","0.0-6.0-1.16-0.16","077","20","f","1666105369758","750","q","q","Only if I get the answer right","You win money","A fixed time limit","5","female","i tried to look at which ball was the odd one and took some breaks","it was quite fast so difficult to choose the right one all the time","2","1","1","0","2","1","0","3","2","2","2","3","1","1","0","1","0","0","1","1","0","0","3","1","1","1","1","1","1","2","1","1","1","1","1","2","1","0","1","0","2","2","3","1","0","1","1","1","3","2","2","1","3","3","3","3","2","1","2","2","3","1","3","632.3000000119209","<div style=""color:green; font-size:75px;""><b>$0.20</b></div><br><br><br><br><table><tr><td><img src=static/images/oddball_up.png></td><td><img src=static/images/oddball_up.png></td><td><img src=static/images/oddball_down.png></td></tr></table>","69","1","","","","","","","","","","","","","","","","","",""
"","html-keyboard-response","116","467158","0.0-6.0-1.16-1.16","077","20","f","1666105369758","750","q","q","Only if I get the answer right","You win money","A fixed time limit","5","female","i tried to look at which ball was the odd one and took some breaks","it was quite fast so difficult to choose the right one all the time","2","1","1","0","2","1","0","3","2","2","2","3","1","1","0","1","0","0","1","1","0","0","3","1","1","1","1","1","1","2","1","1","1","1","1","2","1","0","1","0","2","2","3","1","0","1","1","1","3","2","2","1","3","3","3","3","2","1","2","2","3","1","3","632.3000000119209","","e","","true","0","16","up","down","2","e","1","0","1666105837260","","","false","60","16","0.11666666666666667","0.2","false"
"","html-keyboard-response","117","467713","0.0-6.0-1.17-0.17","077","20","f","1666105369758","750","q","q","Only if I get the answer right","You win money","A fixed time limit","5","female","i tried to look at which ball was the odd one and took some breaks","it was quite fast so difficult to choose the right one all the time","2","1","1","0","2","1","0","3","2","2","2","3","1","1","0","1","0","0","1","1","0","0","3","1","1","1","1","1","1","2","1","1","1","1","1","2","1","0","1","0","2","2","3","1","0","1","1","1","3","2","2","1","3","3","3","3","2","1","2","2","3","1","3","553.8000000119209","<div style=""color:green; font-size:75px;""><b>$0.20</b></div><br><br><br><br><table><tr><td><img src=static/images/oddball_down.png></td><td><img src=static/images/oddball_up.png></td><td><img src=static/images/oddball_up.png></td></tr></table>","81","1","","","","","","","","","","","","","","","","","",""
"","html-keyboard-response","118","467826","0.0-6.0-1.17-1.17","077","20","f","1666105369758","750","q","q","Only if I get the answer right","You win money","A fixed time limit","5","female","i tried to look at which ball was the odd one and took some breaks","it was quite fast so difficult to choose the right one all the time","2","1","1","0","2","1","0","3","2","2","2","3","1","1","0","1","0","0","1","1","0","0","3","1","1","1","1","1","1","2","1","1","1","1","1","2","1","0","1","0","2","2","3","1","0","1","1","1","3","2","2","1","3","3","3","3","2","1","2","2","3","1","3","553.8000000119209","","q","","true","0","17","up","down","0","q","1","0","1666105837928","","","false","60","17","0.13333333333333333","0.2","false"
"","html-keyboard-response","119","468449","0.0-6.0-1.18-0.18","077","20","f","1666105369758","750","q","q","Only if I get the answer right","You win money","A fixed time limit","5","female","i tried to look at which ball was the odd one and took some breaks","it was quite fast so difficult to choose the right one all the time","2","1","1","0","2","1","0","3","2","2","2","3","1","1","0","1","0","0","1","1","0","0","3","1","1","1","1","1","1","2","1","1","1","1","1","2","1","0","1","0","2","2","3","1","0","1","1","1","3","2","2","1","3","3","3","3","2","1","2","2","3","1","3","622.1999999880791","<div style=""color:green; font-size:75px;""><b>$0.20</b></div><br><br><br><br><table><tr><td><img src=static/images/oddball_up.png></td><td><img src=static/images/oddball_down.png></td><td><img src=static/images/oddball_up.png></td></tr></table>","87","1","","","","","","","","","","","","","","","","","",""
"","html-keyboard-response","120","468561","0.0-6.0-1.18-1.18","077","20","f","1666105369758","750","q","q","Only if I get the answer right","You win money","A fixed time limit","5","female","i tried to look at which ball was the odd one and took some breaks","it was quite fast so difficult to choose the right one all the time","2","1","1","0","2","1","0","3","2","2","2","3","1","1","0","1","0","0","1","1","0","0","3","1","1","1","1","1","1","2","1","1","1","1","1","2","1","0","1","0","2","2","3","1","0","1","1","1","3","2","2","1","3","3","3","3","2","1","2","2","3","1","3","622.1999999880791","","w","","true","0","18","up","down","1","w","1","0","1666105838663","","","false","60","18","0.15","0.2","false"
"","html-keyboard-response","121","469316","0.0-6.0-1.19-0.19","077","20","f","1666105369758","750","q","q","Only if I get the answer right","You win money","A fixed time limit","5","female","i tried to look at which ball was the odd one and took some breaks","it was quite fast so difficult to choose the right one all the time","2","1","1","0","2","1","0","3","2","2","2","3","1","1","0","1","0","0","1","1","0","0","3","1","1","1","1","1","1","2","1","1","1","1","1","2","1","0","1","0","2","2","3","1","0","1","1","1","3","2","2","1","3","3","3","3","2","1","2","2","3","1","3","null","<div style=""color:green; font-size:75px;""><b>$0.20</b></div><br><br><br><br><table><tr><td><img src=static/images/oddball_down.png></td><td><img src=static/images/oddball_down.png></td><td><img src=static/images/oddball_up.png></td></tr></table>","null","","","","","","","","","","","","","","","","","","",""
"","html-keyboard-response","122","469433","0.0-6.0-1.19-1.19","077","20","f","1666105369758","750","q","q","Only if I get the answer right","You win money","A fixed time limit","5","female","i tried to look at which ball was the odd one and took some breaks","it was quite fast so difficult to choose the right one all the time","2","1","1","0","2","1","0","3","2","2","2","3","1","1","0","1","0","0","1","1","0","0","3","1","1","1","1","1","1","2","1","1","1","1","1","2","1","0","1","0","2","2","3","1","0","1","1","1","3","2","2","1","3","3","3","3","2","1","2","2","3","1","3","null","","null","","true","0","19","down","up","2","e","0","0","1666105839536","","","false","60","19","0.16666666666666666","0.2","true"
"","html-keyboard-response","123","470188","0.0-6.0-1.20-0.20","077","20","f","1666105369758","750","q","q","Only if I get the answer right","You win money","A fixed time limit","5","female","i tried to look at which ball was the odd one and took some breaks","it was quite fast so difficult to choose the right one all the time","2","1","1","0","2","1","0","3","2","2","2","3","1","1","0","1","0","0","1","1","0","0","3","1","1","1","1","1","1","2","1","1","1","1","1","2","1","0","1","0","2","2","3","1","0","1","1","1","3","2","2","1","3","3","3","3","2","1","2","2","3","1","3","null","<div style=""color:green; font-size:75px;""><b>$0.20</b></div><br><br><br><br><table><tr><td><img src=static/images/oddball_up.png></td><td><img src=static/images/oddball_down.png></td><td><img src=static/images/oddball_up.png></td></tr></table>","null","","","","","","","","","","","","","","","","","","",""
"","html-keyboard-response","124","470303","0.0-6.0-1.20-1.20","077","20","f","1666105369758","750","q","q","Only if I get the answer right","You win money","A fixed time limit","5","female","i tried to look at which ball was the odd one and took some breaks","it was quite fast so difficult to choose the right one all the time","2","1","1","0","2","1","0","3","2","2","2","3","1","1","0","1","0","0","1","1","0","0","3","1","1","1","1","1","1","2","1","1","1","1","1","2","1","0","1","0","2","2","3","1","0","1","1","1","3","2","2","1","3","3","3","3","2","1","2","2","3","1","3","null","","null","","true","0","20","up","down","1","w","0","0","1666105840405","","","false","60","20","0.16666666666666666","0.2","true"
"","html-keyboard-response","125","471054","0.0-6.0-1.21-0.21","077","20","f","1666105369758","750","q","q","Only if I get the answer right","You win money","A fixed time limit","5","female","i tried to look at which ball was the odd one and took some breaks","it was quite fast so difficult to choose the right one all the time","2","1","1","0","2","1","0","3","2","2","2","3","1","1","0","1","0","0","1","1","0","0","3","1","1","1","1","1","1","2","1","1","1","1","1","2","1","0","1","0","2","2","3","1","0","1","1","1","3","2","2","1","3","3","3","3","2","1","2","2","3","1","3","null","<div style=""color:green; font-size:75px;""><b>$0.20</b></div><br><br><br><br><table><tr><td><img src=static/images/oddball_down.png></td><td><img src=static/images/oddball_up.png></td><td><img src=static/images/oddball_down.png></td></tr></table>","null","","","","","","","","","","","","","","","","","","",""
"","html-keyboard-response","126","471171","0.0-6.0-1.21-1.21","077","20","f","1666105369758","750","q","q","Only if I get the answer right","You win money","A fixed time limit","5","female","i tried to look at which ball was the odd one and took some breaks","it was quite fast so difficult to choose the right one all the time","2","1","1","0","2","1","0","3","2","2","2","3","1","1","0","1","0","0","1","1","0","0","3","1","1","1","1","1","1","2","1","1","1","1","1","2","1","0","1","0","2","2","3","1","0","1","1","1","3","2","2","1","3","3","3","3","2","1","2","2","3","1","3","null","","null","","true","0","21","down","up","1","w","0","0","1666105841273","","","false","60","21","0.16666666666666666","0.2","true"
"","html-keyboard-response","127","471904","0.0-6.0-1.22-0.22","077","20","f","1666105369758","750","q","q","Only if I get the answer right","You win money","A fixed time limit","5","female","i tried to look at which ball was the odd one and took some breaks","it was quite fast so difficult to choose the right one all the time","2","1","1","0","2","1","0","3","2","2","2","3","1","1","0","1","0","0","1","1","0","0","3","1","1","1","1","1","1","2","1","1","1","1","1","2","1","0","1","0","2","2","3","1","0","1","1","1","3","2","2","1","3","3","3","3","2","1","2","2","3","1","3","732.6999999880791","<div style=""color:green; font-size:75px;""><b>$0.20</b></div><br><br><br><br><table><tr><td><img src=static/images/oddball_down.png></td><td><img src=static/images/oddball_up.png></td><td><img src=static/images/oddball_down.png></td></tr></table>","87","1","","","","","","","","","","","","","","","","","",""
"","html-keyboard-response","128","472034","0.0-6.0-1.22-1.22","077","20","f","1666105369758","750","q","q","Only if I get the answer right","You win money","A fixed time limit","5","female","i tried to look at which ball was the odd one and took some breaks","it was quite fast so difficult to choose the right one all the time","2","1","1","0","2","1","0","3","2","2","2","3","1","1","0","1","0","0","1","1","0","0","3","1","1","1","1","1","1","2","1","1","1","1","1","2","1","0","1","0","2","2","3","1","0","1","1","1","3","2","2","1","3","3","3","3","2","1","2","2","3","1","3","732.6999999880791","","w","","true","0","22","down","up","1","w","1","0","1666105842136","","","false","60","22","0.16666666666666666","0.2","false"
