"success","trial_type","trial_index","time_elapsed","internal_node_id","subject","age","sex","date","deadline","instQ1","instQ2","instQ3","instQ4","instQ5","totalInstQ","gender","strategy","comments","DASS1_s","DASS2_a","DASS3_d","DASS4_a","DASS5_d","DASS6_s","DASS7_a","DASS8_s","DASS9_a","DASS10_d","DASS11_s","DASS12_s","DASS13_d","DASS14_s","DASS15_a","DASS16_d","DASS17_d","DASS18_s","DASS19_a","DASS20_a","DASS21_d","BB1","BB2","BB3","BB4","BB5","BB6","BB7","BB8","BB9","BB10","BB11","BB12","BB13","BB14","BB15","BB16","BB17","BB18","BB19","BB20","BB21","BB22","BB23","BB24","NFC1","NFC2","NFC3","NFC4","NFC5","NFC6","NFC7","NFC8","NFC9","NFC10","NFC11","NFC12","NFC13","NFC14","NFC15","NFC16","NFC17","NFC18","rt","stimulus","key_press","npress","isDataTrial","block","trialinblock","common","odd","oddidx","correct_ans","accuracy","totalTokens","timestamp","responses","question_order","showprog","blocklen","trial","progress","reward","timedout"
"true","fullscreen",0,4033,"0.0-0.0",59,20,"M",1665421884942,750,"q","w","Only if I get the answer right","You win money","A fixed time limit",4,"Male","when the middle one is lower, it looks like a mouse. I also took a some breaks when I noticed a dip in my performance, since I feel that this is a very impulse/intuition based task and that sense is worn out if I concentrate for too long","i'd rather not see the money value that I earned since the value is arbitrary to my performance. I tried spamming the same button to eventually get pass a level but turns out I was also punished for getting too many answers wrong, which I don't remember to be explicitly mentioned in the rules",0,0,0,0,3,0,0,2,3,0,0,0,0,0,1,0,2,0,3,3,0,1,3,3,0,0,2,0,2,3,1,1,2,0,2,2,2,0,1,0,3,3,3,1,0,2,1,1,1,3,0,4,1,3,4,3,0,1,0,4,2,2,0,"","","","","","","","","","","","","","","","","","","","","",""
"","image-keyboard-response",1,63156,"0.0-1.0-0.0",59,20,"M",1665421884942,750,"q","w","Only if I get the answer right","You win money","A fixed time limit",4,"Male","when the middle one is lower, it looks like a mouse. I also took a some breaks when I noticed a dip in my performance, since I feel that this is a very impulse/intuition based task and that sense is worn out if I concentrate for too long","i'd rather not see the money value that I earned since the value is arbitrary to my performance. I tried spamming the same button to eventually get pass a level but turns out I was also punished for getting too many answers wrong, which I don't remember to be explicitly mentioned in the rules",0,0,0,0,3,0,0,2,3,0,0,0,0,0,1,0,2,0,3,3,0,1,3,3,0,0,2,0,2,3,1,1,2,0,2,2,2,0,1,0,3,3,3,1,0,2,1,1,1,3,0,4,1,3,4,3,0,1,0,4,2,2,0,"58979.40000009537","static/images/instructions/Slide1.png","39","","","","","","","","","","","","","","","","","","",""
"","image-keyboard-response",2,67550,"0.0-1.1-0.1",59,20,"M",1665421884942,750,"q","w","Only if I get the answer right","You win money","A fixed time limit",4,"Male","when the middle one is lower, it looks like a mouse. I also took a some breaks when I noticed a dip in my performance, since I feel that this is a very impulse/intuition based task and that sense is worn out if I concentrate for too long","i'd rather not see the money value that I earned since the value is arbitrary to my performance. I tried spamming the same button to eventually get pass a level but turns out I was also punished for getting too many answers wrong, which I don't remember to be explicitly mentioned in the rules",0,0,0,0,3,0,0,2,3,0,0,0,0,0,1,0,2,0,3,3,0,1,3,3,0,0,2,0,2,3,1,1,2,0,2,2,2,0,1,0,3,3,3,1,0,2,1,1,1,3,0,4,1,3,4,3,0,1,0,4,2,2,0,"4391.299999952316","static/images/instructions/Slide2.png","39","","","","","","","","","","","","","","","","","","",""
"","image-keyboard-response",3,74422,"0.0-1.2-0.2",59,20,"M",1665421884942,750,"q","w","Only if I get the answer right","You win money","A fixed time limit",4,"Male","when the middle one is lower, it looks like a mouse. I also took a some breaks when I noticed a dip in my performance, since I feel that this is a very impulse/intuition based task and that sense is worn out if I concentrate for too long","i'd rather not see the money value that I earned since the value is arbitrary to my performance. I tried spamming the same button to eventually get pass a level but turns out I was also punished for getting too many answers wrong, which I don't remember to be explicitly mentioned in the rules",0,0,0,0,3,0,0,2,3,0,0,0,0,0,1,0,2,0,3,3,0,1,3,3,0,0,2,0,2,3,1,1,2,0,2,2,2,0,1,0,3,3,3,1,0,2,1,1,1,3,0,4,1,3,4,3,0,1,0,4,2,2,0,"6860.5","static/images/instructions/Slide3.png","39","","","","","","","","","","","","","","","","","","",""
"","image-keyboard-response",4,80142,"0.0-1.3-0.3",59,20,"M",1665421884942,750,"q","w","Only if I get the answer right","You win money","A fixed time limit",4,"Male","when the middle one is lower, it looks like a mouse. I also took a some breaks when I noticed a dip in my performance, since I feel that this is a very impulse/intuition based task and that sense is worn out if I concentrate for too long","i'd rather not see the money value that I earned since the value is arbitrary to my performance. I tried spamming the same button to eventually get pass a level but turns out I was also punished for getting too many answers wrong, which I don't remember to be explicitly mentioned in the rules",0,0,0,0,3,0,0,2,3,0,0,0,0,0,1,0,2,0,3,3,0,1,3,3,0,0,2,0,2,3,1,1,2,0,2,2,2,0,1,0,3,3,3,1,0,2,1,1,1,3,0,4,1,3,4,3,0,1,0,4,2,2,0,"5719.100000143051","static/images/instructions/Slide4.png","39","","","","","","","","","","","","","","","","","","",""
"","image-keyboard-response",5,81390,"0.0-1.4-0.4",59,20,"M",1665421884942,750,"q","w","Only if I get the answer right","You win money","A fixed time limit",4,"Male","when the middle one is lower, it looks like a mouse. I also took a some breaks when I noticed a dip in my performance, since I feel that this is a very impulse/intuition based task and that sense is worn out if I concentrate for too long","i'd rather not see the money value that I earned since the value is arbitrary to my performance. I tried spamming the same button to eventually get pass a level but turns out I was also punished for getting too many answers wrong, which I don't remember to be explicitly mentioned in the rules",0,0,0,0,3,0,0,2,3,0,0,0,0,0,1,0,2,0,3,3,0,1,3,3,0,0,2,0,2,3,1,1,2,0,2,2,2,0,1,0,3,3,3,1,0,2,1,1,1,3,0,4,1,3,4,3,0,1,0,4,2,2,0,"1236.7000000476837","static/images/instructions/Slide5.png","39","","","","","","","","","","","","","","","","","","",""
"","image-keyboard-response",6,82038,"0.0-1.5-0.5",59,20,"M",1665421884942,750,"q","w","Only if I get the answer right","You win money","A fixed time limit",4,"Male","when the middle one is lower, it looks like a mouse. I also took a some breaks when I noticed a dip in my performance, since I feel that this is a very impulse/intuition based task and that sense is worn out if I concentrate for too long","i'd rather not see the money value that I earned since the value is arbitrary to my performance. I tried spamming the same button to eventually get pass a level but turns out I was also punished for getting too many answers wrong, which I don't remember to be explicitly mentioned in the rules",0,0,0,0,3,0,0,2,3,0,0,0,0,0,1,0,2,0,3,3,0,1,3,3,0,0,2,0,2,3,1,1,2,0,2,2,2,0,1,0,3,3,3,1,0,2,1,1,1,3,0,4,1,3,4,3,0,1,0,4,2,2,0,"647.5","static/images/instructions/Slide6.png","39","","","","","","","","","","","","","","","","","","",""
"","image-keyboard-response",7,111255,"0.0-1.6-0.6",59,20,"M",1665421884942,750,"q","w","Only if I get the answer right","You win money","A fixed time limit",4,"Male","when the middle one is lower, it looks like a mouse. I also took a some breaks when I noticed a dip in my performance, since I feel that this is a very impulse/intuition based task and that sense is worn out if I concentrate for too long","i'd rather not see the money value that I earned since the value is arbitrary to my performance. I tried spamming the same button to eventually get pass a level but turns out I was also punished for getting too many answers wrong, which I don't remember to be explicitly mentioned in the rules",0,0,0,0,3,0,0,2,3,0,0,0,0,0,1,0,2,0,3,3,0,1,3,3,0,0,2,0,2,3,1,1,2,0,2,2,2,0,1,0,3,3,3,1,0,2,1,1,1,3,0,4,1,3,4,3,0,1,0,4,2,2,0,"29215.60000014305","static/images/instructions/Slide7.png","39","","","","","","","","","","","","","","","","","","",""
"","html-keyboard-response",8,112503,"0.0-2.0-0.0",59,20,"M",1665421884942,750,"q","w","Only if I get the answer right","You win money","A fixed time limit",4,"Male","when the middle one is lower, it looks like a mouse. I also took a some breaks when I noticed a dip in my performance, since I feel that this is a very impulse/intuition based task and that sense is worn out if I concentrate for too long","i'd rather not see the money value that I earned since the value is arbitrary to my performance. I tried spamming the same button to eventually get pass a level but turns out I was also punished for getting too many answers wrong, which I don't remember to be explicitly mentioned in the rules",0,0,0,0,3,0,0,2,3,0,0,0,0,0,1,0,2,0,3,3,0,1,3,3,0,0,2,0,2,3,1,1,2,0,2,2,2,0,1,0,3,3,3,1,0,2,1,1,1,3,0,4,1,3,4,3,0,1,0,4,2,2,0,"1246.8000001907349","<br><br><br><br><table><tr><td><img src=static/images/oddball_up.png></td><td><img src=static/images/oddball_down.png></td><td><img src=static/images/oddball_up.png></td></tr></table>","87","1","","","","","","","","","","","","","","","","","",""
"","html-keyboard-response",9,115011,"0.0-2.0-1.0",59,20,"M",1665421884942,750,"q","w","Only if I get the answer right","You win money","A fixed time limit",4,"Male","when the middle one is lower, it looks like a mouse. I also took a some breaks when I noticed a dip in my performance, since I feel that this is a very impulse/intuition based task and that sense is worn out if I concentrate for too long","i'd rather not see the money value that I earned since the value is arbitrary to my performance. I tried spamming the same button to eventually get pass a level but turns out I was also punished for getting too many answers wrong, which I don't remember to be explicitly mentioned in the rules",0,0,0,0,3,0,0,2,3,0,0,0,0,0,1,0,2,0,3,3,0,1,3,3,0,0,2,0,2,3,1,1,2,0,2,2,2,0,1,0,3,3,3,1,0,2,1,1,1,3,0,4,1,3,4,3,0,1,0,4,2,2,0,"null","<div style=""font-size:75px;""><b>Correct</b></div>","null","","","","","","","","","","","","","","","","","","",""
"","html-keyboard-response",10,116028,"0.0-2.0-2.0",59,20,"M",1665421884942,750,"q","w","Only if I get the answer right","You win money","A fixed time limit",4,"Male","when the middle one is lower, it looks like a mouse. I also took a some breaks when I noticed a dip in my performance, since I feel that this is a very impulse/intuition based task and that sense is worn out if I concentrate for too long","i'd rather not see the money value that I earned since the value is arbitrary to my performance. I tried spamming the same button to eventually get pass a level but turns out I was also punished for getting too many answers wrong, which I don't remember to be explicitly mentioned in the rules",0,0,0,0,3,0,0,2,3,0,0,0,0,0,1,0,2,0,3,3,0,1,3,3,0,0,2,0,2,3,1,1,2,0,2,2,2,0,1,0,3,3,3,1,0,2,1,1,1,3,0,4,1,3,4,3,0,1,0,4,2,2,0,"1246.8000001907349","","w","","true","practice","0","up","down","1","w","1","0","1665422001350","","","","","","","",""
"","html-keyboard-response",11,116670,"0.0-2.1-0.1",59,20,"M",1665421884942,750,"q","w","Only if I get the answer right","You win money","A fixed time limit",4,"Male","when the middle one is lower, it looks like a mouse. I also took a some breaks when I noticed a dip in my performance, since I feel that this is a very impulse/intuition based task and that sense is worn out if I concentrate for too long","i'd rather not see the money value that I earned since the value is arbitrary to my performance. I tried spamming the same button to eventually get pass a level but turns out I was also punished for getting too many answers wrong, which I don't remember to be explicitly mentioned in the rules",0,0,0,0,3,0,0,2,3,0,0,0,0,0,1,0,2,0,3,3,0,1,3,3,0,0,2,0,2,3,1,1,2,0,2,2,2,0,1,0,3,3,3,1,0,2,1,1,1,3,0,4,1,3,4,3,0,1,0,4,2,2,0,"642","<br><br><br><br><table><tr><td><img src=static/images/oddball_down.png></td><td><img src=static/images/oddball_down.png></td><td><img src=static/images/oddball_up.png></td></tr></table>","69","1","","","","","","","","","","","","","","","","","",""
"","html-keyboard-response",12,119180,"0.0-2.1-1.1",59,20,"M",1665421884942,750,"q","w","Only if I get the answer right","You win money","A fixed time limit",4,"Male","when the middle one is lower, it looks like a mouse. I also took a some breaks when I noticed a dip in my performance, since I feel that this is a very impulse/intuition based task and that sense is worn out if I concentrate for too long","i'd rather not see the money value that I earned since the value is arbitrary to my performance. I tried spamming the same button to eventually get pass a level but turns out I was also punished for getting too many answers wrong, which I don't remember to be explicitly mentioned in the rules",0,0,0,0,3,0,0,2,3,0,0,0,0,0,1,0,2,0,3,3,0,1,3,3,0,0,2,0,2,3,1,1,2,0,2,2,2,0,1,0,3,3,3,1,0,2,1,1,1,3,0,4,1,3,4,3,0,1,0,4,2,2,0,"null","<div style=""font-size:75px;""><b>Correct</b></div>","null","","","","","","","","","","","","","","","","","","",""
"","html-keyboard-response",13,120185,"0.0-2.1-2.1",59,20,"M",1665421884942,750,"q","w","Only if I get the answer right","You win money","A fixed time limit",4,"Male","when the middle one is lower, it looks like a mouse. I also took a some breaks when I noticed a dip in my performance, since I feel that this is a very impulse/intuition based task and that sense is worn out if I concentrate for too long","i'd rather not see the money value that I earned since the value is arbitrary to my performance. I tried spamming the same button to eventually get pass a level but turns out I was also punished for getting too many answers wrong, which I don't remember to be explicitly mentioned in the rules",0,0,0,0,3,0,0,2,3,0,0,0,0,0,1,0,2,0,3,3,0,1,3,3,0,0,2,0,2,3,1,1,2,0,2,2,2,0,1,0,3,3,3,1,0,2,1,1,1,3,0,4,1,3,4,3,0,1,0,4,2,2,0,"642","","e","","true","practice","1","down","up","2","e","1","0","1665422005507","","","","","","","",""
"","html-keyboard-response",14,120767,"0.0-2.2-0.2",59,20,"M",1665421884942,750,"q","w","Only if I get the answer right","You win money","A fixed time limit",4,"Male","when the middle one is lower, it looks like a mouse. I also took a some breaks when I noticed a dip in my performance, since I feel that this is a very impulse/intuition based task and that sense is worn out if I concentrate for too long","i'd rather not see the money value that I earned since the value is arbitrary to my performance. I tried spamming the same button to eventually get pass a level but turns out I was also punished for getting too many answers wrong, which I don't remember to be explicitly mentioned in the rules",0,0,0,0,3,0,0,2,3,0,0,0,0,0,1,0,2,0,3,3,0,1,3,3,0,0,2,0,2,3,1,1,2,0,2,2,2,0,1,0,3,3,3,1,0,2,1,1,1,3,0,4,1,3,4,3,0,1,0,4,2,2,0,"581","<br><br><br><br><table><tr><td><img src=static/images/oddball_up.png></td><td><img src=static/images/oddball_down.png></td><td><img src=static/images/oddball_down.png></td></tr></table>","81","1","","","","","","","","","","","","","","","","","",""
"","html-keyboard-response",15,123284,"0.0-2.2-1.2",59,20,"M",1665421884942,750,"q","w","Only if I get the answer right","You win money","A fixed time limit",4,"Male","when the middle one is lower, it looks like a mouse. I also took a some breaks when I noticed a dip in my performance, since I feel that this is a very impulse/intuition based task and that sense is worn out if I concentrate for too long","i'd rather not see the money value that I earned since the value is arbitrary to my performance. I tried spamming the same button to eventually get pass a level but turns out I was also punished for getting too many answers wrong, which I don't remember to be explicitly mentioned in the rules",0,0,0,0,3,0,0,2,3,0,0,0,0,0,1,0,2,0,3,3,0,1,3,3,0,0,2,0,2,3,1,1,2,0,2,2,2,0,1,0,3,3,3,1,0,2,1,1,1,3,0,4,1,3,4,3,0,1,0,4,2,2,0,"null","<div style=""font-size:75px;""><b>Correct</b></div>","null","","","","","","","","","","","","","","","","","","",""
"","html-keyboard-response",16,124289,"0.0-2.2-2.2",59,20,"M",1665421884942,750,"q","w","Only if I get the answer right","You win money","A fixed time limit",4,"Male","when the middle one is lower, it looks like a mouse. I also took a some breaks when I noticed a dip in my performance, since I feel that this is a very impulse/intuition based task and that sense is worn out if I concentrate for too long","i'd rather not see the money value that I earned since the value is arbitrary to my performance. I tried spamming the same button to eventually get pass a level but turns out I was also punished for getting too many answers wrong, which I don't remember to be explicitly mentioned in the rules",0,0,0,0,3,0,0,2,3,0,0,0,0,0,1,0,2,0,3,3,0,1,3,3,0,0,2,0,2,3,1,1,2,0,2,2,2,0,1,0,3,3,3,1,0,2,1,1,1,3,0,4,1,3,4,3,0,1,0,4,2,2,0,"581","","q","","true","practice","2","down","up","0","q","1","0","1665422009611","","","","","","","",""
"","html-keyboard-response",17,124900,"0.0-2.3-0.3",59,20,"M",1665421884942,750,"q","w","Only if I get the answer right","You win money","A fixed time limit",4,"Male","when the middle one is lower, it looks like a mouse. I also took a some breaks when I noticed a dip in my performance, since I feel that this is a very impulse/intuition based task and that sense is worn out if I concentrate for too long","i'd rather not see the money value that I earned since the value is arbitrary to my performance. I tried spamming the same button to eventually get pass a level but turns out I was also punished for getting too many answers wrong, which I don't remember to be explicitly mentioned in the rules",0,0,0,0,3,0,0,2,3,0,0,0,0,0,1,0,2,0,3,3,0,1,3,3,0,0,2,0,2,3,1,1,2,0,2,2,2,0,1,0,3,3,3,1,0,2,1,1,1,3,0,4,1,3,4,3,0,1,0,4,2,2,0,"610.2000000476837","<br><br><br><br><table><tr><td><img src=static/images/oddball_up.png></td><td><img src=static/images/oddball_down.png></td><td><img src=static/images/oddball_down.png></td></tr></table>","81","1","","","","","","","","","","","","","","","","","",""
"","html-keyboard-response",18,127409,"0.0-2.3-1.3",59,20,"M",1665421884942,750,"q","w","Only if I get the answer right","You win money","A fixed time limit",4,"Male","when the middle one is lower, it looks like a mouse. I also took a some breaks when I noticed a dip in my performance, since I feel that this is a very impulse/intuition based task and that sense is worn out if I concentrate for too long","i'd rather not see the money value that I earned since the value is arbitrary to my performance. I tried spamming the same button to eventually get pass a level but turns out I was also punished for getting too many answers wrong, which I don't remember to be explicitly mentioned in the rules",0,0,0,0,3,0,0,2,3,0,0,0,0,0,1,0,2,0,3,3,0,1,3,3,0,0,2,0,2,3,1,1,2,0,2,2,2,0,1,0,3,3,3,1,0,2,1,1,1,3,0,4,1,3,4,3,0,1,0,4,2,2,0,"null","<div style=""font-size:75px;""><b>Correct</b></div>","null","","","","","","","","","","","","","","","","","","",""
"","html-keyboard-response",19,128414,"0.0-2.3-2.3",59,20,"M",1665421884942,750,"q","w","Only if I get the answer right","You win money","A fixed time limit",4,"Male","when the middle one is lower, it looks like a mouse. I also took a some breaks when I noticed a dip in my performance, since I feel that this is a very impulse/intuition based task and that sense is worn out if I concentrate for too long","i'd rather not see the money value that I earned since the value is arbitrary to my performance. I tried spamming the same button to eventually get pass a level but turns out I was also punished for getting too many answers wrong, which I don't remember to be explicitly mentioned in the rules",0,0,0,0,3,0,0,2,3,0,0,0,0,0,1,0,2,0,3,3,0,1,3,3,0,0,2,0,2,3,1,1,2,0,2,2,2,0,1,0,3,3,3,1,0,2,1,1,1,3,0,4,1,3,4,3,0,1,0,4,2,2,0,"610.2000000476837","","q","","true","practice","3","down","up","0","q","1","0","1665422013736","","","","","","","",""
"","html-keyboard-response",20,128860,"0.0-2.4-0.4",59,20,"M",1665421884942,750,"q","w","Only if I get the answer right","You win money","A fixed time limit",4,"Male","when the middle one is lower, it looks like a mouse. I also took a some breaks when I noticed a dip in my performance, since I feel that this is a very impulse/intuition based task and that sense is worn out if I concentrate for too long","i'd rather not see the money value that I earned since the value is arbitrary to my performance. I tried spamming the same button to eventually get pass a level but turns out I was also punished for getting too many answers wrong, which I don't remember to be explicitly mentioned in the rules",0,0,0,0,3,0,0,2,3,0,0,0,0,0,1,0,2,0,3,3,0,1,3,3,0,0,2,0,2,3,1,1,2,0,2,2,2,0,1,0,3,3,3,1,0,2,1,1,1,3,0,4,1,3,4,3,0,1,0,4,2,2,0,"445.7000000476837","<br><br><br><br><table><tr><td><img src=static/images/oddball_up.png></td><td><img src=static/images/oddball_down.png></td><td><img src=static/images/oddball_down.png></td></tr></table>","81","1","","","","","","","","","","","","","","","","","",""
"","html-keyboard-response",21,131367,"0.0-2.4-1.4",59,20,"M",1665421884942,750,"q","w","Only if I get the answer right","You win money","A fixed time limit",4,"Male","when the middle one is lower, it looks like a mouse. I also took a some breaks when I noticed a dip in my performance, since I feel that this is a very impulse/intuition based task and that sense is worn out if I concentrate for too long","i'd rather not see the money value that I earned since the value is arbitrary to my performance. I tried spamming the same button to eventually get pass a level but turns out I was also punished for getting too many answers wrong, which I don't remember to be explicitly mentioned in the rules",0,0,0,0,3,0,0,2,3,0,0,0,0,0,1,0,2,0,3,3,0,1,3,3,0,0,2,0,2,3,1,1,2,0,2,2,2,0,1,0,3,3,3,1,0,2,1,1,1,3,0,4,1,3,4,3,0,1,0,4,2,2,0,"null","<div style=""font-size:75px;""><b>Correct</b></div>","null","","","","","","","","","","","","","","","","","","",""
"","html-keyboard-response",22,132373,"0.0-2.4-2.4",59,20,"M",1665421884942,750,"q","w","Only if I get the answer right","You win money","A fixed time limit",4,"Male","when the middle one is lower, it looks like a mouse. I also took a some breaks when I noticed a dip in my performance, since I feel that this is a very impulse/intuition based task and that sense is worn out if I concentrate for too long","i'd rather not see the money value that I earned since the value is arbitrary to my performance. I tried spamming the same button to eventually get pass a level but turns out I was also punished for getting too many answers wrong, which I don't remember to be explicitly mentioned in the rules",0,0,0,0,3,0,0,2,3,0,0,0,0,0,1,0,2,0,3,3,0,1,3,3,0,0,2,0,2,3,1,1,2,0,2,2,2,0,1,0,3,3,3,1,0,2,1,1,1,3,0,4,1,3,4,3,0,1,0,4,2,2,0,"445.7000000476837","","q","","true","practice","4","down","up","0","q","1","0","1665422017695","","","","","","","",""
"","html-keyboard-response",23,132972,"0.0-2.5-0.5",59,20,"M",1665421884942,750,"q","w","Only if I get the answer right","You win money","A fixed time limit",4,"Male","when the middle one is lower, it looks like a mouse. I also took a some breaks when I noticed a dip in my performance, since I feel that this is a very impulse/intuition based task and that sense is worn out if I concentrate for too long","i'd rather not see the money value that I earned since the value is arbitrary to my performance. I tried spamming the same button to eventually get pass a level but turns out I was also punished for getting too many answers wrong, which I don't remember to be explicitly mentioned in the rules",0,0,0,0,3,0,0,2,3,0,0,0,0,0,1,0,2,0,3,3,0,1,3,3,0,0,2,0,2,3,1,1,2,0,2,2,2,0,1,0,3,3,3,1,0,2,1,1,1,3,0,4,1,3,4,3,0,1,0,4,2,2,0,"598.5","<br><br><br><br><table><tr><td><img src=static/images/oddball_up.png></td><td><img src=static/images/oddball_up.png></td><td><img src=static/images/oddball_down.png></td></tr></table>","69","1","","","","","","","","","","","","","","","","","",""
"","html-keyboard-response",24,135475,"0.0-2.5-1.5",59,20,"M",1665421884942,750,"q","w","Only if I get the answer right","You win money","A fixed time limit",4,"Male","when the middle one is lower, it looks like a mouse. I also took a some breaks when I noticed a dip in my performance, since I feel that this is a very impulse/intuition based task and that sense is worn out if I concentrate for too long","i'd rather not see the money value that I earned since the value is arbitrary to my performance. I tried spamming the same button to eventually get pass a level but turns out I was also punished for getting too many answers wrong, which I don't remember to be explicitly mentioned in the rules",0,0,0,0,3,0,0,2,3,0,0,0,0,0,1,0,2,0,3,3,0,1,3,3,0,0,2,0,2,3,1,1,2,0,2,2,2,0,1,0,3,3,3,1,0,2,1,1,1,3,0,4,1,3,4,3,0,1,0,4,2,2,0,"null","<div style=""font-size:75px;""><b>Correct</b></div>","null","","","","","","","","","","","","","","","","","","",""
"","html-keyboard-response",25,136481,"0.0-2.5-2.5",59,20,"M",1665421884942,750,"q","w","Only if I get the answer right","You win money","A fixed time limit",4,"Male","when the middle one is lower, it looks like a mouse. I also took a some breaks when I noticed a dip in my performance, since I feel that this is a very impulse/intuition based task and that sense is worn out if I concentrate for too long","i'd rather not see the money value that I earned since the value is arbitrary to my performance. I tried spamming the same button to eventually get pass a level but turns out I was also punished for getting too many answers wrong, which I don't remember to be explicitly mentioned in the rules",0,0,0,0,3,0,0,2,3,0,0,0,0,0,1,0,2,0,3,3,0,1,3,3,0,0,2,0,2,3,1,1,2,0,2,2,2,0,1,0,3,3,3,1,0,2,1,1,1,3,0,4,1,3,4,3,0,1,0,4,2,2,0,"598.5","","e","","true","practice","5","up","down","2","e","1","0","1665422021803","","","","","","","",""
"","html-keyboard-response",26,136980,"0.0-2.6-0.6",59,20,"M",1665421884942,750,"q","w","Only if I get the answer right","You win money","A fixed time limit",4,"Male","when the middle one is lower, it looks like a mouse. I also took a some breaks when I noticed a dip in my performance, since I feel that this is a very impulse/intuition based task and that sense is worn out if I concentrate for too long","i'd rather not see the money value that I earned since the value is arbitrary to my performance. I tried spamming the same button to eventually get pass a level but turns out I was also punished for getting too many answers wrong, which I don't remember to be explicitly mentioned in the rules",0,0,0,0,3,0,0,2,3,0,0,0,0,0,1,0,2,0,3,3,0,1,3,3,0,0,2,0,2,3,1,1,2,0,2,2,2,0,1,0,3,3,3,1,0,2,1,1,1,3,0,4,1,3,4,3,0,1,0,4,2,2,0,"498.80000019073486","<br><br><br><br><table><tr><td><img src=static/images/oddball_down.png></td><td><img src=static/images/oddball_down.png></td><td><img src=static/images/oddball_up.png></td></tr></table>","69","1","","","","","","","","","","","","","","","","","",""
"","html-keyboard-response",27,139483,"0.0-2.6-1.6",59,20,"M",1665421884942,750,"q","w","Only if I get the answer right","You win money","A fixed time limit",4,"Male","when the middle one is lower, it looks like a mouse. I also took a some breaks when I noticed a dip in my performance, since I feel that this is a very impulse/intuition based task and that sense is worn out if I concentrate for too long","i'd rather not see the money value that I earned since the value is arbitrary to my performance. I tried spamming the same button to eventually get pass a level but turns out I was also punished for getting too many answers wrong, which I don't remember to be explicitly mentioned in the rules",0,0,0,0,3,0,0,2,3,0,0,0,0,0,1,0,2,0,3,3,0,1,3,3,0,0,2,0,2,3,1,1,2,0,2,2,2,0,1,0,3,3,3,1,0,2,1,1,1,3,0,4,1,3,4,3,0,1,0,4,2,2,0,"null","<div style=""font-size:75px;""><b>Correct</b></div>","null","","","","","","","","","","","","","","","","","","",""
"","html-keyboard-response",28,140489,"0.0-2.6-2.6",59,20,"M",1665421884942,750,"q","w","Only if I get the answer right","You win money","A fixed time limit",4,"Male","when the middle one is lower, it looks like a mouse. I also took a some breaks when I noticed a dip in my performance, since I feel that this is a very impulse/intuition based task and that sense is worn out if I concentrate for too long","i'd rather not see the money value that I earned since the value is arbitrary to my performance. I tried spamming the same button to eventually get pass a level but turns out I was also punished for getting too many answers wrong, which I don't remember to be explicitly mentioned in the rules",0,0,0,0,3,0,0,2,3,0,0,0,0,0,1,0,2,0,3,3,0,1,3,3,0,0,2,0,2,3,1,1,2,0,2,2,2,0,1,0,3,3,3,1,0,2,1,1,1,3,0,4,1,3,4,3,0,1,0,4,2,2,0,"498.80000019073486","","e","","true","practice","6","down","up","2","e","1","0","1665422025811","","","","","","","",""
"","html-keyboard-response",29,141180,"0.0-2.7-0.7",59,20,"M",1665421884942,750,"q","w","Only if I get the answer right","You win money","A fixed time limit",4,"Male","when the middle one is lower, it looks like a mouse. I also took a some breaks when I noticed a dip in my performance, since I feel that this is a very impulse/intuition based task and that sense is worn out if I concentrate for too long","i'd rather not see the money value that I earned since the value is arbitrary to my performance. I tried spamming the same button to eventually get pass a level but turns out I was also punished for getting too many answers wrong, which I don't remember to be explicitly mentioned in the rules",0,0,0,0,3,0,0,2,3,0,0,0,0,0,1,0,2,0,3,3,0,1,3,3,0,0,2,0,2,3,1,1,2,0,2,2,2,0,1,0,3,3,3,1,0,2,1,1,1,3,0,4,1,3,4,3,0,1,0,4,2,2,0,"690.5999999046326","<br><br><br><br><table><tr><td><img src=static/images/oddball_up.png></td><td><img src=static/images/oddball_down.png></td><td><img src=static/images/oddball_down.png></td></tr></table>","81","1","","","","","","","","","","","","","","","","","",""
"","html-keyboard-response",30,143691,"0.0-2.7-1.7",59,20,"M",1665421884942,750,"q","w","Only if I get the answer right","You win money","A fixed time limit",4,"Male","when the middle one is lower, it looks like a mouse. I also took a some breaks when I noticed a dip in my performance, since I feel that this is a very impulse/intuition based task and that sense is worn out if I concentrate for too long","i'd rather not see the money value that I earned since the value is arbitrary to my performance. I tried spamming the same button to eventually get pass a level but turns out I was also punished for getting too many answers wrong, which I don't remember to be explicitly mentioned in the rules",0,0,0,0,3,0,0,2,3,0,0,0,0,0,1,0,2,0,3,3,0,1,3,3,0,0,2,0,2,3,1,1,2,0,2,2,2,0,1,0,3,3,3,1,0,2,1,1,1,3,0,4,1,3,4,3,0,1,0,4,2,2,0,"null","<div style=""font-size:75px;""><b>Correct</b></div>","null","","","","","","","","","","","","","","","","","","",""
"","html-keyboard-response",31,144696,"0.0-2.7-2.7",59,20,"M",1665421884942,750,"q","w","Only if I get the answer right","You win money","A fixed time limit",4,"Male","when the middle one is lower, it looks like a mouse. I also took a some breaks when I noticed a dip in my performance, since I feel that this is a very impulse/intuition based task and that sense is worn out if I concentrate for too long","i'd rather not see the money value that I earned since the value is arbitrary to my performance. I tried spamming the same button to eventually get pass a level but turns out I was also punished for getting too many answers wrong, which I don't remember to be explicitly mentioned in the rules",0,0,0,0,3,0,0,2,3,0,0,0,0,0,1,0,2,0,3,3,0,1,3,3,0,0,2,0,2,3,1,1,2,0,2,2,2,0,1,0,3,3,3,1,0,2,1,1,1,3,0,4,1,3,4,3,0,1,0,4,2,2,0,"690.5999999046326","","q","","true","practice","7","down","up","0","q","1","0","1665422030018","","","","","","","",""
"","html-keyboard-response",32,145196,"0.0-2.8-0.8",59,20,"M",1665421884942,750,"q","w","Only if I get the answer right","You win money","A fixed time limit",4,"Male","when the middle one is lower, it looks like a mouse. I also took a some breaks when I noticed a dip in my performance, since I feel that this is a very impulse/intuition based task and that sense is worn out if I concentrate for too long","i'd rather not see the money value that I earned since the value is arbitrary to my performance. I tried spamming the same button to eventually get pass a level but turns out I was also punished for getting too many answers wrong, which I don't remember to be explicitly mentioned in the rules",0,0,0,0,3,0,0,2,3,0,0,0,0,0,1,0,2,0,3,3,0,1,3,3,0,0,2,0,2,3,1,1,2,0,2,2,2,0,1,0,3,3,3,1,0,2,1,1,1,3,0,4,1,3,4,3,0,1,0,4,2,2,0,"499.2000000476837","<br><br><br><br><table><tr><td><img src=static/images/oddball_down.png></td><td><img src=static/images/oddball_up.png></td><td><img src=static/images/oddball_up.png></td></tr></table>","81","1","","","","","","","","","","","","","","","","","",""
"","html-keyboard-response",33,147699,"0.0-2.8-1.8",59,20,"M",1665421884942,750,"q","w","Only if I get the answer right","You win money","A fixed time limit",4,"Male","when the middle one is lower, it looks like a mouse. I also took a some breaks when I noticed a dip in my performance, since I feel that this is a very impulse/intuition based task and that sense is worn out if I concentrate for too long","i'd rather not see the money value that I earned since the value is arbitrary to my performance. I tried spamming the same button to eventually get pass a level but turns out I was also punished for getting too many answers wrong, which I don't remember to be explicitly mentioned in the rules",0,0,0,0,3,0,0,2,3,0,0,0,0,0,1,0,2,0,3,3,0,1,3,3,0,0,2,0,2,3,1,1,2,0,2,2,2,0,1,0,3,3,3,1,0,2,1,1,1,3,0,4,1,3,4,3,0,1,0,4,2,2,0,"null","<div style=""font-size:75px;""><b>Correct</b></div>","null","","","","","","","","","","","","","","","","","","",""
"","html-keyboard-response",34,148704,"0.0-2.8-2.8",59,20,"M",1665421884942,750,"q","w","Only if I get the answer right","You win money","A fixed time limit",4,"Male","when the middle one is lower, it looks like a mouse. I also took a some breaks when I noticed a dip in my performance, since I feel that this is a very impulse/intuition based task and that sense is worn out if I concentrate for too long","i'd rather not see the money value that I earned since the value is arbitrary to my performance. I tried spamming the same button to eventually get pass a level but turns out I was also punished for getting too many answers wrong, which I don't remember to be explicitly mentioned in the rules",0,0,0,0,3,0,0,2,3,0,0,0,0,0,1,0,2,0,3,3,0,1,3,3,0,0,2,0,2,3,1,1,2,0,2,2,2,0,1,0,3,3,3,1,0,2,1,1,1,3,0,4,1,3,4,3,0,1,0,4,2,2,0,"499.2000000476837","","q","","true","practice","8","up","down","0","q","1","0","1665422034026","","","","","","","",""
"","html-keyboard-response",35,149188,"0.0-2.9-0.9",59,20,"M",1665421884942,750,"q","w","Only if I get the answer right","You win money","A fixed time limit",4,"Male","when the middle one is lower, it looks like a mouse. I also took a some breaks when I noticed a dip in my performance, since I feel that this is a very impulse/intuition based task and that sense is worn out if I concentrate for too long","i'd rather not see the money value that I earned since the value is arbitrary to my performance. I tried spamming the same button to eventually get pass a level but turns out I was also punished for getting too many answers wrong, which I don't remember to be explicitly mentioned in the rules",0,0,0,0,3,0,0,2,3,0,0,0,0,0,1,0,2,0,3,3,0,1,3,3,0,0,2,0,2,3,1,1,2,0,2,2,2,0,1,0,3,3,3,1,0,2,1,1,1,3,0,4,1,3,4,3,0,1,0,4,2,2,0,"483.5","<br><br><br><br><table><tr><td><img src=static/images/oddball_down.png></td><td><img src=static/images/oddball_up.png></td><td><img src=static/images/oddball_down.png></td></tr></table>","87","1","","","","","","","","","","","","","","","","","",""
"","html-keyboard-response",36,151689,"0.0-2.9-1.9",59,20,"M",1665421884942,750,"q","w","Only if I get the answer right","You win money","A fixed time limit",4,"Male","when the middle one is lower, it looks like a mouse. I also took a some breaks when I noticed a dip in my performance, since I feel that this is a very impulse/intuition based task and that sense is worn out if I concentrate for too long","i'd rather not see the money value that I earned since the value is arbitrary to my performance. I tried spamming the same button to eventually get pass a level but turns out I was also punished for getting too many answers wrong, which I don't remember to be explicitly mentioned in the rules",0,0,0,0,3,0,0,2,3,0,0,0,0,0,1,0,2,0,3,3,0,1,3,3,0,0,2,0,2,3,1,1,2,0,2,2,2,0,1,0,3,3,3,1,0,2,1,1,1,3,0,4,1,3,4,3,0,1,0,4,2,2,0,"null","<div style=""font-size:75px;""><b>Correct</b></div>","null","","","","","","","","","","","","","","","","","","",""
"","html-keyboard-response",37,152694,"0.0-2.9-2.9",59,20,"M",1665421884942,750,"q","w","Only if I get the answer right","You win money","A fixed time limit",4,"Male","when the middle one is lower, it looks like a mouse. I also took a some breaks when I noticed a dip in my performance, since I feel that this is a very impulse/intuition based task and that sense is worn out if I concentrate for too long","i'd rather not see the money value that I earned since the value is arbitrary to my performance. I tried spamming the same button to eventually get pass a level but turns out I was also punished for getting too many answers wrong, which I don't remember to be explicitly mentioned in the rules",0,0,0,0,3,0,0,2,3,0,0,0,0,0,1,0,2,0,3,3,0,1,3,3,0,0,2,0,2,3,1,1,2,0,2,2,2,0,1,0,3,3,3,1,0,2,1,1,1,3,0,4,1,3,4,3,0,1,0,4,2,2,0,"483.5","","w","","true","practice","9","down","up","1","w","1","0","1665422038016","","","","","","","",""
"","html-keyboard-response",38,153132,"0.0-2.10-0.10",59,20,"M",1665421884942,750,"q","w","Only if I get the answer right","You win money","A fixed time limit",4,"Male","when the middle one is lower, it looks like a mouse. I also took a some breaks when I noticed a dip in my performance, since I feel that this is a very impulse/intuition based task and that sense is worn out if I concentrate for too long","i'd rather not see the money value that I earned since the value is arbitrary to my performance. I tried spamming the same button to eventually get pass a level but turns out I was also punished for getting too many answers wrong, which I don't remember to be explicitly mentioned in the rules",0,0,0,0,3,0,0,2,3,0,0,0,0,0,1,0,2,0,3,3,0,1,3,3,0,0,2,0,2,3,1,1,2,0,2,2,2,0,1,0,3,3,3,1,0,2,1,1,1,3,0,4,1,3,4,3,0,1,0,4,2,2,0,"437","<br><br><br><br><table><tr><td><img src=static/images/oddball_down.png></td><td><img src=static/images/oddball_up.png></td><td><img src=static/images/oddball_up.png></td></tr></table>","81","1","","","","","","","","","","","","","","","","","",""
"","html-keyboard-response",39,155645,"0.0-2.10-1.10",59,20,"M",1665421884942,750,"q","w","Only if I get the answer right","You win money","A fixed time limit",4,"Male","when the middle one is lower, it looks like a mouse. I also took a some breaks when I noticed a dip in my performance, since I feel that this is a very impulse/intuition based task and that sense is worn out if I concentrate for too long","i'd rather not see the money value that I earned since the value is arbitrary to my performance. I tried spamming the same button to eventually get pass a level but turns out I was also punished for getting too many answers wrong, which I don't remember to be explicitly mentioned in the rules",0,0,0,0,3,0,0,2,3,0,0,0,0,0,1,0,2,0,3,3,0,1,3,3,0,0,2,0,2,3,1,1,2,0,2,2,2,0,1,0,3,3,3,1,0,2,1,1,1,3,0,4,1,3,4,3,0,1,0,4,2,2,0,"null","<div style=""font-size:75px;""><b>Correct</b></div>","null","","","","","","","","","","","","","","","","","","",""
"","html-keyboard-response",40,156652,"0.0-2.10-2.10",59,20,"M",1665421884942,750,"q","w","Only if I get the answer right","You win money","A fixed time limit",4,"Male","when the middle one is lower, it looks like a mouse. I also took a some breaks when I noticed a dip in my performance, since I feel that this is a very impulse/intuition based task and that sense is worn out if I concentrate for too long","i'd rather not see the money value that I earned since the value is arbitrary to my performance. I tried spamming the same button to eventually get pass a level but turns out I was also punished for getting too many answers wrong, which I don't remember to be explicitly mentioned in the rules",0,0,0,0,3,0,0,2,3,0,0,0,0,0,1,0,2,0,3,3,0,1,3,3,0,0,2,0,2,3,1,1,2,0,2,2,2,0,1,0,3,3,3,1,0,2,1,1,1,3,0,4,1,3,4,3,0,1,0,4,2,2,0,"437","","q","","true","practice","10","up","down","0","q","1","0","1665422041974","","","","","","","",""
"","html-keyboard-response",41,157124,"0.0-2.11-0.11",59,20,"M",1665421884942,750,"q","w","Only if I get the answer right","You win money","A fixed time limit",4,"Male","when the middle one is lower, it looks like a mouse. I also took a some breaks when I noticed a dip in my performance, since I feel that this is a very impulse/intuition based task and that sense is worn out if I concentrate for too long","i'd rather not see the money value that I earned since the value is arbitrary to my performance. I tried spamming the same button to eventually get pass a level but turns out I was also punished for getting too many answers wrong, which I don't remember to be explicitly mentioned in the rules",0,0,0,0,3,0,0,2,3,0,0,0,0,0,1,0,2,0,3,3,0,1,3,3,0,0,2,0,2,3,1,1,2,0,2,2,2,0,1,0,3,3,3,1,0,2,1,1,1,3,0,4,1,3,4,3,0,1,0,4,2,2,0,"471.2000000476837","<br><br><br><br><table><tr><td><img src=static/images/oddball_up.png></td><td><img src=static/images/oddball_down.png></td><td><img src=static/images/oddball_down.png></td></tr></table>","81","1","","","","","","","","","","","","","","","","","",""
"","html-keyboard-response",42,159637,"0.0-2.11-1.11",59,20,"M",1665421884942,750,"q","w","Only if I get the answer right","You win money","A fixed time limit",4,"Male","when the middle one is lower, it looks like a mouse. I also took a some breaks when I noticed a dip in my performance, since I feel that this is a very impulse/intuition based task and that sense is worn out if I concentrate for too long","i'd rather not see the money value that I earned since the value is arbitrary to my performance. I tried spamming the same button to eventually get pass a level but turns out I was also punished for getting too many answers wrong, which I don't remember to be explicitly mentioned in the rules",0,0,0,0,3,0,0,2,3,0,0,0,0,0,1,0,2,0,3,3,0,1,3,3,0,0,2,0,2,3,1,1,2,0,2,2,2,0,1,0,3,3,3,1,0,2,1,1,1,3,0,4,1,3,4,3,0,1,0,4,2,2,0,"null","<div style=""font-size:75px;""><b>Correct</b></div>","null","","","","","","","","","","","","","","","","","","",""
"","html-keyboard-response",43,160641,"0.0-2.11-2.11",59,20,"M",1665421884942,750,"q","w","Only if I get the answer right","You win money","A fixed time limit",4,"Male","when the middle one is lower, it looks like a mouse. I also took a some breaks when I noticed a dip in my performance, since I feel that this is a very impulse/intuition based task and that sense is worn out if I concentrate for too long","i'd rather not see the money value that I earned since the value is arbitrary to my performance. I tried spamming the same button to eventually get pass a level but turns out I was also punished for getting too many answers wrong, which I don't remember to be explicitly mentioned in the rules",0,0,0,0,3,0,0,2,3,0,0,0,0,0,1,0,2,0,3,3,0,1,3,3,0,0,2,0,2,3,1,1,2,0,2,2,2,0,1,0,3,3,3,1,0,2,1,1,1,3,0,4,1,3,4,3,0,1,0,4,2,2,0,"471.2000000476837","","q","","true","practice","11","down","up","0","q","1","0","1665422045963","","","","","","","",""
"","html-keyboard-response",44,161180,"0.0-2.12-0.12",59,20,"M",1665421884942,750,"q","w","Only if I get the answer right","You win money","A fixed time limit",4,"Male","when the middle one is lower, it looks like a mouse. I also took a some breaks when I noticed a dip in my performance, since I feel that this is a very impulse/intuition based task and that sense is worn out if I concentrate for too long","i'd rather not see the money value that I earned since the value is arbitrary to my performance. I tried spamming the same button to eventually get pass a level but turns out I was also punished for getting too many answers wrong, which I don't remember to be explicitly mentioned in the rules",0,0,0,0,3,0,0,2,3,0,0,0,0,0,1,0,2,0,3,3,0,1,3,3,0,0,2,0,2,3,1,1,2,0,2,2,2,0,1,0,3,3,3,1,0,2,1,1,1,3,0,4,1,3,4,3,0,1,0,4,2,2,0,"538.4000000953674","<br><br><br><br><table><tr><td><img src=static/images/oddball_down.png></td><td><img src=static/images/oddball_down.png></td><td><img src=static/images/oddball_up.png></td></tr></table>","81","1","","","","","","","","","","","","","","","","","",""
"","html-keyboard-response",45,163695,"0.0-2.12-1.12",59,20,"M",1665421884942,750,"q","w","Only if I get the answer right","You win money","A fixed time limit",4,"Male","when the middle one is lower, it looks like a mouse. I also took a some breaks when I noticed a dip in my performance, since I feel that this is a very impulse/intuition based task and that sense is worn out if I concentrate for too long","i'd rather not see the money value that I earned since the value is arbitrary to my performance. I tried spamming the same button to eventually get pass a level but turns out I was also punished for getting too many answers wrong, which I don't remember to be explicitly mentioned in the rules",0,0,0,0,3,0,0,2,3,0,0,0,0,0,1,0,2,0,3,3,0,1,3,3,0,0,2,0,2,3,1,1,2,0,2,2,2,0,1,0,3,3,3,1,0,2,1,1,1,3,0,4,1,3,4,3,0,1,0,4,2,2,0,"null","<div style=""font-size:75px;""><b>Incorrect</b></div><br><br><div font-size:50px;"">The right shape was the odd one out, so you needed to press E!</div>","null","","","","","","","","","","","","","","","","","","",""
"","html-keyboard-response",46,164700,"0.0-2.12-2.12",59,20,"M",1665421884942,750,"q","w","Only if I get the answer right","You win money","A fixed time limit",4,"Male","when the middle one is lower, it looks like a mouse. I also took a some breaks when I noticed a dip in my performance, since I feel that this is a very impulse/intuition based task and that sense is worn out if I concentrate for too long","i'd rather not see the money value that I earned since the value is arbitrary to my performance. I tried spamming the same button to eventually get pass a level but turns out I was also punished for getting too many answers wrong, which I don't remember to be explicitly mentioned in the rules",0,0,0,0,3,0,0,2,3,0,0,0,0,0,1,0,2,0,3,3,0,1,3,3,0,0,2,0,2,3,1,1,2,0,2,2,2,0,1,0,3,3,3,1,0,2,1,1,1,3,0,4,1,3,4,3,0,1,0,4,2,2,0,"538.4000000953674","","q","","true","practice","12","down","up","2","e","0","0","1665422050022","","","","","","","",""
"","html-keyboard-response",47,165396,"0.0-2.13-0.13",59,20,"M",1665421884942,750,"q","w","Only if I get the answer right","You win money","A fixed time limit",4,"Male","when the middle one is lower, it looks like a mouse. I also took a some breaks when I noticed a dip in my performance, since I feel that this is a very impulse/intuition based task and that sense is worn out if I concentrate for too long","i'd rather not see the money value that I earned since the value is arbitrary to my performance. I tried spamming the same button to eventually get pass a level but turns out I was also punished for getting too many answers wrong, which I don't remember to be explicitly mentioned in the rules",0,0,0,0,3,0,0,2,3,0,0,0,0,0,1,0,2,0,3,3,0,1,3,3,0,0,2,0,2,3,1,1,2,0,2,2,2,0,1,0,3,3,3,1,0,2,1,1,1,3,0,4,1,3,4,3,0,1,0,4,2,2,0,"695.5","<br><br><br><br><table><tr><td><img src=static/images/oddball_down.png></td><td><img src=static/images/oddball_up.png></td><td><img src=static/images/oddball_down.png></td></tr></table>","87","1","","","","","","","","","","","","","","","","","",""
"","html-keyboard-response",48,167902,"0.0-2.13-1.13",59,20,"M",1665421884942,750,"q","w","Only if I get the answer right","You win money","A fixed time limit",4,"Male","when the middle one is lower, it looks like a mouse. I also took a some breaks when I noticed a dip in my performance, since I feel that this is a very impulse/intuition based task and that sense is worn out if I concentrate for too long","i'd rather not see the money value that I earned since the value is arbitrary to my performance. I tried spamming the same button to eventually get pass a level but turns out I was also punished for getting too many answers wrong, which I don't remember to be explicitly mentioned in the rules",0,0,0,0,3,0,0,2,3,0,0,0,0,0,1,0,2,0,3,3,0,1,3,3,0,0,2,0,2,3,1,1,2,0,2,2,2,0,1,0,3,3,3,1,0,2,1,1,1,3,0,4,1,3,4,3,0,1,0,4,2,2,0,"null","<div style=""font-size:75px;""><b>Correct</b></div>","null","","","","","","","","","","","","","","","","","","",""
"","html-keyboard-response",49,168909,"0.0-2.13-2.13",59,20,"M",1665421884942,750,"q","w","Only if I get the answer right","You win money","A fixed time limit",4,"Male","when the middle one is lower, it looks like a mouse. I also took a some breaks when I noticed a dip in my performance, since I feel that this is a very impulse/intuition based task and that sense is worn out if I concentrate for too long","i'd rather not see the money value that I earned since the value is arbitrary to my performance. I tried spamming the same button to eventually get pass a level but turns out I was also punished for getting too many answers wrong, which I don't remember to be explicitly mentioned in the rules",0,0,0,0,3,0,0,2,3,0,0,0,0,0,1,0,2,0,3,3,0,1,3,3,0,0,2,0,2,3,1,1,2,0,2,2,2,0,1,0,3,3,3,1,0,2,1,1,1,3,0,4,1,3,4,3,0,1,0,4,2,2,0,"695.5","","w","","true","practice","13","down","up","1","w","1","0","1665422054231","","","","","","","",""
"","html-keyboard-response",50,169628,"0.0-2.14-0.14",59,20,"M",1665421884942,750,"q","w","Only if I get the answer right","You win money","A fixed time limit",4,"Male","when the middle one is lower, it looks like a mouse. I also took a some breaks when I noticed a dip in my performance, since I feel that this is a very impulse/intuition based task and that sense is worn out if I concentrate for too long","i'd rather not see the money value that I earned since the value is arbitrary to my performance. I tried spamming the same button to eventually get pass a level but turns out I was also punished for getting too many answers wrong, which I don't remember to be explicitly mentioned in the rules",0,0,0,0,3,0,0,2,3,0,0,0,0,0,1,0,2,0,3,3,0,1,3,3,0,0,2,0,2,3,1,1,2,0,2,2,2,0,1,0,3,3,3,1,0,2,1,1,1,3,0,4,1,3,4,3,0,1,0,4,2,2,0,"718.2000000476837","<br><br><br><br><table><tr><td><img src=static/images/oddball_up.png></td><td><img src=static/images/oddball_down.png></td><td><img src=static/images/oddball_up.png></td></tr></table>","87","1","","","","","","","","","","","","","","","","","",""
"","html-keyboard-response",51,172143,"0.0-2.14-1.14",59,20,"M",1665421884942,750,"q","w","Only if I get the answer right","You win money","A fixed time limit",4,"Male","when the middle one is lower, it looks like a mouse. I also took a some breaks when I noticed a dip in my performance, since I feel that this is a very impulse/intuition based task and that sense is worn out if I concentrate for too long","i'd rather not see the money value that I earned since the value is arbitrary to my performance. I tried spamming the same button to eventually get pass a level but turns out I was also punished for getting too many answers wrong, which I don't remember to be explicitly mentioned in the rules",0,0,0,0,3,0,0,2,3,0,0,0,0,0,1,0,2,0,3,3,0,1,3,3,0,0,2,0,2,3,1,1,2,0,2,2,2,0,1,0,3,3,3,1,0,2,1,1,1,3,0,4,1,3,4,3,0,1,0,4,2,2,0,"null","<div style=""font-size:75px;""><b>Correct</b></div>","null","","","","","","","","","","","","","","","","","","",""
"","html-keyboard-response",52,173148,"0.0-2.14-2.14",59,20,"M",1665421884942,750,"q","w","Only if I get the answer right","You win money","A fixed time limit",4,"Male","when the middle one is lower, it looks like a mouse. I also took a some breaks when I noticed a dip in my performance, since I feel that this is a very impulse/intuition based task and that sense is worn out if I concentrate for too long","i'd rather not see the money value that I earned since the value is arbitrary to my performance. I tried spamming the same button to eventually get pass a level but turns out I was also punished for getting too many answers wrong, which I don't remember to be explicitly mentioned in the rules",0,0,0,0,3,0,0,2,3,0,0,0,0,0,1,0,2,0,3,3,0,1,3,3,0,0,2,0,2,3,1,1,2,0,2,2,2,0,1,0,3,3,3,1,0,2,1,1,1,3,0,4,1,3,4,3,0,1,0,4,2,2,0,"718.2000000476837","","w","","true","practice","14","up","down","1","w","1","0","1665422058470","","","","","","","",""
"","html-keyboard-response",53,173740,"0.0-2.15-0.15",59,20,"M",1665421884942,750,"q","w","Only if I get the answer right","You win money","A fixed time limit",4,"Male","when the middle one is lower, it looks like a mouse. I also took a some breaks when I noticed a dip in my performance, since I feel that this is a very impulse/intuition based task and that sense is worn out if I concentrate for too long","i'd rather not see the money value that I earned since the value is arbitrary to my performance. I tried spamming the same button to eventually get pass a level but turns out I was also punished for getting too many answers wrong, which I don't remember to be explicitly mentioned in the rules",0,0,0,0,3,0,0,2,3,0,0,0,0,0,1,0,2,0,3,3,0,1,3,3,0,0,2,0,2,3,1,1,2,0,2,2,2,0,1,0,3,3,3,1,0,2,1,1,1,3,0,4,1,3,4,3,0,1,0,4,2,2,0,"591.7000000476837","<br><br><br><br><table><tr><td><img src=static/images/oddball_down.png></td><td><img src=static/images/oddball_up.png></td><td><img src=static/images/oddball_up.png></td></tr></table>","81","1","","","","","","","","","","","","","","","","","",""
"","html-keyboard-response",54,176252,"0.0-2.15-1.15",59,20,"M",1665421884942,750,"q","w","Only if I get the answer right","You win money","A fixed time limit",4,"Male","when the middle one is lower, it looks like a mouse. I also took a some breaks when I noticed a dip in my performance, since I feel that this is a very impulse/intuition based task and that sense is worn out if I concentrate for too long","i'd rather not see the money value that I earned since the value is arbitrary to my performance. I tried spamming the same button to eventually get pass a level but turns out I was also punished for getting too many answers wrong, which I don't remember to be explicitly mentioned in the rules",0,0,0,0,3,0,0,2,3,0,0,0,0,0,1,0,2,0,3,3,0,1,3,3,0,0,2,0,2,3,1,1,2,0,2,2,2,0,1,0,3,3,3,1,0,2,1,1,1,3,0,4,1,3,4,3,0,1,0,4,2,2,0,"null","<div style=""font-size:75px;""><b>Correct</b></div>","null","","","","","","","","","","","","","","","","","","",""
"","html-keyboard-response",55,177257,"0.0-2.15-2.15",59,20,"M",1665421884942,750,"q","w","Only if I get the answer right","You win money","A fixed time limit",4,"Male","when the middle one is lower, it looks like a mouse. I also took a some breaks when I noticed a dip in my performance, since I feel that this is a very impulse/intuition based task and that sense is worn out if I concentrate for too long","i'd rather not see the money value that I earned since the value is arbitrary to my performance. I tried spamming the same button to eventually get pass a level but turns out I was also punished for getting too many answers wrong, which I don't remember to be explicitly mentioned in the rules",0,0,0,0,3,0,0,2,3,0,0,0,0,0,1,0,2,0,3,3,0,1,3,3,0,0,2,0,2,3,1,1,2,0,2,2,2,0,1,0,3,3,3,1,0,2,1,1,1,3,0,4,1,3,4,3,0,1,0,4,2,2,0,"591.7000000476837","","q","","true","practice","15","up","down","0","q","1","0","1665422062579","","","","","","","",""
"","html-keyboard-response",56,177780,"0.0-2.16-0.16",59,20,"M",1665421884942,750,"q","w","Only if I get the answer right","You win money","A fixed time limit",4,"Male","when the middle one is lower, it looks like a mouse. I also took a some breaks when I noticed a dip in my performance, since I feel that this is a very impulse/intuition based task and that sense is worn out if I concentrate for too long","i'd rather not see the money value that I earned since the value is arbitrary to my performance. I tried spamming the same button to eventually get pass a level but turns out I was also punished for getting too many answers wrong, which I don't remember to be explicitly mentioned in the rules",0,0,0,0,3,0,0,2,3,0,0,0,0,0,1,0,2,0,3,3,0,1,3,3,0,0,2,0,2,3,1,1,2,0,2,2,2,0,1,0,3,3,3,1,0,2,1,1,1,3,0,4,1,3,4,3,0,1,0,4,2,2,0,"522.7999999523163","<br><br><br><br><table><tr><td><img src=static/images/oddball_up.png></td><td><img src=static/images/oddball_up.png></td><td><img src=static/images/oddball_down.png></td></tr></table>","69","1","","","","","","","","","","","","","","","","","",""
"","html-keyboard-response",57,180291,"0.0-2.16-1.16",59,20,"M",1665421884942,750,"q","w","Only if I get the answer right","You win money","A fixed time limit",4,"Male","when the middle one is lower, it looks like a mouse. I also took a some breaks when I noticed a dip in my performance, since I feel that this is a very impulse/intuition based task and that sense is worn out if I concentrate for too long","i'd rather not see the money value that I earned since the value is arbitrary to my performance. I tried spamming the same button to eventually get pass a level but turns out I was also punished for getting too many answers wrong, which I don't remember to be explicitly mentioned in the rules",0,0,0,0,3,0,0,2,3,0,0,0,0,0,1,0,2,0,3,3,0,1,3,3,0,0,2,0,2,3,1,1,2,0,2,2,2,0,1,0,3,3,3,1,0,2,1,1,1,3,0,4,1,3,4,3,0,1,0,4,2,2,0,"null","<div style=""font-size:75px;""><b>Correct</b></div>","null","","","","","","","","","","","","","","","","","","",""
"","html-keyboard-response",58,181297,"0.0-2.16-2.16",59,20,"M",1665421884942,750,"q","w","Only if I get the answer right","You win money","A fixed time limit",4,"Male","when the middle one is lower, it looks like a mouse. I also took a some breaks when I noticed a dip in my performance, since I feel that this is a very impulse/intuition based task and that sense is worn out if I concentrate for too long","i'd rather not see the money value that I earned since the value is arbitrary to my performance. I tried spamming the same button to eventually get pass a level but turns out I was also punished for getting too many answers wrong, which I don't remember to be explicitly mentioned in the rules",0,0,0,0,3,0,0,2,3,0,0,0,0,0,1,0,2,0,3,3,0,1,3,3,0,0,2,0,2,3,1,1,2,0,2,2,2,0,1,0,3,3,3,1,0,2,1,1,1,3,0,4,1,3,4,3,0,1,0,4,2,2,0,"522.7999999523163","","e","","true","practice","16","up","down","2","e","1","0","1665422066619","","","","","","","",""
"","html-keyboard-response",59,181748,"0.0-2.17-0.17",59,20,"M",1665421884942,750,"q","w","Only if I get the answer right","You win money","A fixed time limit",4,"Male","when the middle one is lower, it looks like a mouse. I also took a some breaks when I noticed a dip in my performance, since I feel that this is a very impulse/intuition based task and that sense is worn out if I concentrate for too long","i'd rather not see the money value that I earned since the value is arbitrary to my performance. I tried spamming the same button to eventually get pass a level but turns out I was also punished for getting too many answers wrong, which I don't remember to be explicitly mentioned in the rules",0,0,0,0,3,0,0,2,3,0,0,0,0,0,1,0,2,0,3,3,0,1,3,3,0,0,2,0,2,3,1,1,2,0,2,2,2,0,1,0,3,3,3,1,0,2,1,1,1,3,0,4,1,3,4,3,0,1,0,4,2,2,0,"450.5","<br><br><br><br><table><tr><td><img src=static/images/oddball_down.png></td><td><img src=static/images/oddball_down.png></td><td><img src=static/images/oddball_up.png></td></tr></table>","69","1","","","","","","","","","","","","","","","","","",""
"","html-keyboard-response",60,184251,"0.0-2.17-1.17",59,20,"M",1665421884942,750,"q","w","Only if I get the answer right","You win money","A fixed time limit",4,"Male","when the middle one is lower, it looks like a mouse. I also took a some breaks when I noticed a dip in my performance, since I feel that this is a very impulse/intuition based task and that sense is worn out if I concentrate for too long","i'd rather not see the money value that I earned since the value is arbitrary to my performance. I tried spamming the same button to eventually get pass a level but turns out I was also punished for getting too many answers wrong, which I don't remember to be explicitly mentioned in the rules",0,0,0,0,3,0,0,2,3,0,0,0,0,0,1,0,2,0,3,3,0,1,3,3,0,0,2,0,2,3,1,1,2,0,2,2,2,0,1,0,3,3,3,1,0,2,1,1,1,3,0,4,1,3,4,3,0,1,0,4,2,2,0,"null","<div style=""font-size:75px;""><b>Correct</b></div>","null","","","","","","","","","","","","","","","","","","",""
"","html-keyboard-response",61,185256,"0.0-2.17-2.17",59,20,"M",1665421884942,750,"q","w","Only if I get the answer right","You win money","A fixed time limit",4,"Male","when the middle one is lower, it looks like a mouse. I also took a some breaks when I noticed a dip in my performance, since I feel that this is a very impulse/intuition based task and that sense is worn out if I concentrate for too long","i'd rather not see the money value that I earned since the value is arbitrary to my performance. I tried spamming the same button to eventually get pass a level but turns out I was also punished for getting too many answers wrong, which I don't remember to be explicitly mentioned in the rules",0,0,0,0,3,0,0,2,3,0,0,0,0,0,1,0,2,0,3,3,0,1,3,3,0,0,2,0,2,3,1,1,2,0,2,2,2,0,1,0,3,3,3,1,0,2,1,1,1,3,0,4,1,3,4,3,0,1,0,4,2,2,0,"450.5","","e","","true","practice","17","down","up","2","e","1","0","1665422070578","","","","","","","",""
"","html-keyboard-response",62,185724,"0.0-2.18-0.18",59,20,"M",1665421884942,750,"q","w","Only if I get the answer right","You win money","A fixed time limit",4,"Male","when the middle one is lower, it looks like a mouse. I also took a some breaks when I noticed a dip in my performance, since I feel that this is a very impulse/intuition based task and that sense is worn out if I concentrate for too long","i'd rather not see the money value that I earned since the value is arbitrary to my performance. I tried spamming the same button to eventually get pass a level but turns out I was also punished for getting too many answers wrong, which I don't remember to be explicitly mentioned in the rules",0,0,0,0,3,0,0,2,3,0,0,0,0,0,1,0,2,0,3,3,0,1,3,3,0,0,2,0,2,3,1,1,2,0,2,2,2,0,1,0,3,3,3,1,0,2,1,1,1,3,0,4,1,3,4,3,0,1,0,4,2,2,0,"467.60000014305115","<br><br><br><br><table><tr><td><img src=static/images/oddball_up.png></td><td><img src=static/images/oddball_up.png></td><td><img src=static/images/oddball_down.png></td></tr></table>","69","1","","","","","","","","","","","","","","","","","",""
"","html-keyboard-response",63,188240,"0.0-2.18-1.18",59,20,"M",1665421884942,750,"q","w","Only if I get the answer right","You win money","A fixed time limit",4,"Male","when the middle one is lower, it looks like a mouse. I also took a some breaks when I noticed a dip in my performance, since I feel that this is a very impulse/intuition based task and that sense is worn out if I concentrate for too long","i'd rather not see the money value that I earned since the value is arbitrary to my performance. I tried spamming the same button to eventually get pass a level but turns out I was also punished for getting too many answers wrong, which I don't remember to be explicitly mentioned in the rules",0,0,0,0,3,0,0,2,3,0,0,0,0,0,1,0,2,0,3,3,0,1,3,3,0,0,2,0,2,3,1,1,2,0,2,2,2,0,1,0,3,3,3,1,0,2,1,1,1,3,0,4,1,3,4,3,0,1,0,4,2,2,0,"null","<div style=""font-size:75px;""><b>Correct</b></div>","null","","","","","","","","","","","","","","","","","","",""
"","html-keyboard-response",64,189244,"0.0-2.18-2.18",59,20,"M",1665421884942,750,"q","w","Only if I get the answer right","You win money","A fixed time limit",4,"Male","when the middle one is lower, it looks like a mouse. I also took a some breaks when I noticed a dip in my performance, since I feel that this is a very impulse/intuition based task and that sense is worn out if I concentrate for too long","i'd rather not see the money value that I earned since the value is arbitrary to my performance. I tried spamming the same button to eventually get pass a level but turns out I was also punished for getting too many answers wrong, which I don't remember to be explicitly mentioned in the rules",0,0,0,0,3,0,0,2,3,0,0,0,0,0,1,0,2,0,3,3,0,1,3,3,0,0,2,0,2,3,1,1,2,0,2,2,2,0,1,0,3,3,3,1,0,2,1,1,1,3,0,4,1,3,4,3,0,1,0,4,2,2,0,"467.60000014305115","","e","","true","practice","18","up","down","2","e","1","0","1665422074566","","","","","","","",""
"","html-keyboard-response",65,189788,"0.0-2.19-0.19",59,20,"M",1665421884942,750,"q","w","Only if I get the answer right","You win money","A fixed time limit",4,"Male","when the middle one is lower, it looks like a mouse. I also took a some breaks when I noticed a dip in my performance, since I feel that this is a very impulse/intuition based task and that sense is worn out if I concentrate for too long","i'd rather not see the money value that I earned since the value is arbitrary to my performance. I tried spamming the same button to eventually get pass a level but turns out I was also punished for getting too many answers wrong, which I don't remember to be explicitly mentioned in the rules",0,0,0,0,3,0,0,2,3,0,0,0,0,0,1,0,2,0,3,3,0,1,3,3,0,0,2,0,2,3,1,1,2,0,2,2,2,0,1,0,3,3,3,1,0,2,1,1,1,3,0,4,1,3,4,3,0,1,0,4,2,2,0,"542.7999999523163","<br><br><br><br><table><tr><td><img src=static/images/oddball_up.png></td><td><img src=static/images/oddball_down.png></td><td><img src=static/images/oddball_up.png></td></tr></table>","87","1","","","","","","","","","","","","","","","","","",""
"","html-keyboard-response",66,192298,"0.0-2.19-1.19",59,20,"M",1665421884942,750,"q","w","Only if I get the answer right","You win money","A fixed time limit",4,"Male","when the middle one is lower, it looks like a mouse. I also took a some breaks when I noticed a dip in my performance, since I feel that this is a very impulse/intuition based task and that sense is worn out if I concentrate for too long","i'd rather not see the money value that I earned since the value is arbitrary to my performance. I tried spamming the same button to eventually get pass a level but turns out I was also punished for getting too many answers wrong, which I don't remember to be explicitly mentioned in the rules",0,0,0,0,3,0,0,2,3,0,0,0,0,0,1,0,2,0,3,3,0,1,3,3,0,0,2,0,2,3,1,1,2,0,2,2,2,0,1,0,3,3,3,1,0,2,1,1,1,3,0,4,1,3,4,3,0,1,0,4,2,2,0,"null","<div style=""font-size:75px;""><b>Correct</b></div>","null","","","","","","","","","","","","","","","","","","",""
"","html-keyboard-response",67,193302,"0.0-2.19-2.19",59,20,"M",1665421884942,750,"q","w","Only if I get the answer right","You win money","A fixed time limit",4,"Male","when the middle one is lower, it looks like a mouse. I also took a some breaks when I noticed a dip in my performance, since I feel that this is a very impulse/intuition based task and that sense is worn out if I concentrate for too long","i'd rather not see the money value that I earned since the value is arbitrary to my performance. I tried spamming the same button to eventually get pass a level but turns out I was also punished for getting too many answers wrong, which I don't remember to be explicitly mentioned in the rules",0,0,0,0,3,0,0,2,3,0,0,0,0,0,1,0,2,0,3,3,0,1,3,3,0,0,2,0,2,3,1,1,2,0,2,2,2,0,1,0,3,3,3,1,0,2,1,1,1,3,0,4,1,3,4,3,0,1,0,4,2,2,0,"542.7999999523163","","w","","true","practice","19","up","down","1","w","1","0","1665422078624","","","","","","","",""
"","image-keyboard-response",68,197604,"0.0-3.0-0.0",59,20,"M",1665421884942,750,"q","w","Only if I get the answer right","You win money","A fixed time limit",4,"Male","when the middle one is lower, it looks like a mouse. I also took a some breaks when I noticed a dip in my performance, since I feel that this is a very impulse/intuition based task and that sense is worn out if I concentrate for too long","i'd rather not see the money value that I earned since the value is arbitrary to my performance. I tried spamming the same button to eventually get pass a level but turns out I was also punished for getting too many answers wrong, which I don't remember to be explicitly mentioned in the rules",0,0,0,0,3,0,0,2,3,0,0,0,0,0,1,0,2,0,3,3,0,1,3,3,0,0,2,0,2,3,1,1,2,0,2,2,2,0,1,0,3,3,3,1,0,2,1,1,1,3,0,4,1,3,4,3,0,1,0,4,2,2,0,"4300.599999904633","static/images/instructions/Slide8.png","39","","","","","","","","","","","","","","","","","","",""
"","image-keyboard-response",69,226268,"0.0-3.1-0.1",59,20,"M",1665421884942,750,"q","w","Only if I get the answer right","You win money","A fixed time limit",4,"Male","when the middle one is lower, it looks like a mouse. I also took a some breaks when I noticed a dip in my performance, since I feel that this is a very impulse/intuition based task and that sense is worn out if I concentrate for too long","i'd rather not see the money value that I earned since the value is arbitrary to my performance. I tried spamming the same button to eventually get pass a level but turns out I was also punished for getting too many answers wrong, which I don't remember to be explicitly mentioned in the rules",0,0,0,0,3,0,0,2,3,0,0,0,0,0,1,0,2,0,3,3,0,1,3,3,0,0,2,0,2,3,1,1,2,0,2,2,2,0,1,0,3,3,3,1,0,2,1,1,1,3,0,4,1,3,4,3,0,1,0,4,2,2,0,"28663.299999952316","static/images/instructions/Slide9.png","39","","","","","","","","","","","","","","","","","","",""
"","image-keyboard-response",70,235988,"0.0-3.2-0.2",59,20,"M",1665421884942,750,"q","w","Only if I get the answer right","You win money","A fixed time limit",4,"Male","when the middle one is lower, it looks like a mouse. I also took a some breaks when I noticed a dip in my performance, since I feel that this is a very impulse/intuition based task and that sense is worn out if I concentrate for too long","i'd rather not see the money value that I earned since the value is arbitrary to my performance. I tried spamming the same button to eventually get pass a level but turns out I was also punished for getting too many answers wrong, which I don't remember to be explicitly mentioned in the rules",0,0,0,0,3,0,0,2,3,0,0,0,0,0,1,0,2,0,3,3,0,1,3,3,0,0,2,0,2,3,1,1,2,0,2,2,2,0,1,0,3,3,3,1,0,2,1,1,1,3,0,4,1,3,4,3,0,1,0,4,2,2,0,"9719","static/images/instructions/Slide10.png","39","","","","","","","","","","","","","","","","","","",""
"","image-keyboard-response",71,248306,"0.0-3.3-0.3",59,20,"M",1665421884942,750,"q","w","Only if I get the answer right","You win money","A fixed time limit",4,"Male","when the middle one is lower, it looks like a mouse. I also took a some breaks when I noticed a dip in my performance, since I feel that this is a very impulse/intuition based task and that sense is worn out if I concentrate for too long","i'd rather not see the money value that I earned since the value is arbitrary to my performance. I tried spamming the same button to eventually get pass a level but turns out I was also punished for getting too many answers wrong, which I don't remember to be explicitly mentioned in the rules",0,0,0,0,3,0,0,2,3,0,0,0,0,0,1,0,2,0,3,3,0,1,3,3,0,0,2,0,2,3,1,1,2,0,2,2,2,0,1,0,3,3,3,1,0,2,1,1,1,3,0,4,1,3,4,3,0,1,0,4,2,2,0,"12319.400000095367","static/images/instructions/Slide11.png","39","","","","","","","","","","","","","","","","","","",""
"","image-keyboard-response",72,250034,"0.0-3.4-0.4",59,20,"M",1665421884942,750,"q","w","Only if I get the answer right","You win money","A fixed time limit",4,"Male","when the middle one is lower, it looks like a mouse. I also took a some breaks when I noticed a dip in my performance, since I feel that this is a very impulse/intuition based task and that sense is worn out if I concentrate for too long","i'd rather not see the money value that I earned since the value is arbitrary to my performance. I tried spamming the same button to eventually get pass a level but turns out I was also punished for getting too many answers wrong, which I don't remember to be explicitly mentioned in the rules",0,0,0,0,3,0,0,2,3,0,0,0,0,0,1,0,2,0,3,3,0,1,3,3,0,0,2,0,2,3,1,1,2,0,2,2,2,0,1,0,3,3,3,1,0,2,1,1,1,3,0,4,1,3,4,3,0,1,0,4,2,2,0,"1727.3999998569489","static/images/instructions/Slide12.png","39","","","","","","","","","","","","","","","","","","",""
"","image-keyboard-response",73,258594,"0.0-3.5-0.5",59,20,"M",1665421884942,750,"q","w","Only if I get the answer right","You win money","A fixed time limit",4,"Male","when the middle one is lower, it looks like a mouse. I also took a some breaks when I noticed a dip in my performance, since I feel that this is a very impulse/intuition based task and that sense is worn out if I concentrate for too long","i'd rather not see the money value that I earned since the value is arbitrary to my performance. I tried spamming the same button to eventually get pass a level but turns out I was also punished for getting too many answers wrong, which I don't remember to be explicitly mentioned in the rules",0,0,0,0,3,0,0,2,3,0,0,0,0,0,1,0,2,0,3,3,0,1,3,3,0,0,2,0,2,3,1,1,2,0,2,2,2,0,1,0,3,3,3,1,0,2,1,1,1,3,0,4,1,3,4,3,0,1,0,4,2,2,0,"8559.900000095367","static/images/instructions/Slide13.png","39","","","","","","","","","","","","","","","","","","",""
"","image-keyboard-response",74,267346,"0.0-3.6-0.6",59,20,"M",1665421884942,750,"q","w","Only if I get the answer right","You win money","A fixed time limit",4,"Male","when the middle one is lower, it looks like a mouse. I also took a some breaks when I noticed a dip in my performance, since I feel that this is a very impulse/intuition based task and that sense is worn out if I concentrate for too long","i'd rather not see the money value that I earned since the value is arbitrary to my performance. I tried spamming the same button to eventually get pass a level but turns out I was also punished for getting too many answers wrong, which I don't remember to be explicitly mentioned in the rules",0,0,0,0,3,0,0,2,3,0,0,0,0,0,1,0,2,0,3,3,0,1,3,3,0,0,2,0,2,3,1,1,2,0,2,2,2,0,1,0,3,3,3,1,0,2,1,1,1,3,0,4,1,3,4,3,0,1,0,4,2,2,0,"8751.5","static/images/instructions/Slide14.png","39","","","","","","","","","","","","","","","","","","",""
"","image-keyboard-response",75,275442,"0.0-3.7-0.7",59,20,"M",1665421884942,750,"q","w","Only if I get the answer right","You win money","A fixed time limit",4,"Male","when the middle one is lower, it looks like a mouse. I also took a some breaks when I noticed a dip in my performance, since I feel that this is a very impulse/intuition based task and that sense is worn out if I concentrate for too long","i'd rather not see the money value that I earned since the value is arbitrary to my performance. I tried spamming the same button to eventually get pass a level but turns out I was also punished for getting too many answers wrong, which I don't remember to be explicitly mentioned in the rules",0,0,0,0,3,0,0,2,3,0,0,0,0,0,1,0,2,0,3,3,0,1,3,3,0,0,2,0,2,3,1,1,2,0,2,2,2,0,1,0,3,3,3,1,0,2,1,1,1,3,0,4,1,3,4,3,0,1,0,4,2,2,0,"8095.199999809265","static/images/instructions/Slide15.png","39","","","","","","","","","","","","","","","","","","",""
"","image-keyboard-response",76,285882,"0.0-3.8-0.8",59,20,"M",1665421884942,750,"q","w","Only if I get the answer right","You win money","A fixed time limit",4,"Male","when the middle one is lower, it looks like a mouse. I also took a some breaks when I noticed a dip in my performance, since I feel that this is a very impulse/intuition based task and that sense is worn out if I concentrate for too long","i'd rather not see the money value that I earned since the value is arbitrary to my performance. I tried spamming the same button to eventually get pass a level but turns out I was also punished for getting too many answers wrong, which I don't remember to be explicitly mentioned in the rules",0,0,0,0,3,0,0,2,3,0,0,0,0,0,1,0,2,0,3,3,0,1,3,3,0,0,2,0,2,3,1,1,2,0,2,2,2,0,1,0,3,3,3,1,0,2,1,1,1,3,0,4,1,3,4,3,0,1,0,4,2,2,0,"10439.5","static/images/instructions/Slide16.png","39","","","","","","","","","","","","","","","","","","",""
"","image-keyboard-response",77,289234,"0.0-3.9-0.9",59,20,"M",1665421884942,750,"q","w","Only if I get the answer right","You win money","A fixed time limit",4,"Male","when the middle one is lower, it looks like a mouse. I also took a some breaks when I noticed a dip in my performance, since I feel that this is a very impulse/intuition based task and that sense is worn out if I concentrate for too long","i'd rather not see the money value that I earned since the value is arbitrary to my performance. I tried spamming the same button to eventually get pass a level but turns out I was also punished for getting too many answers wrong, which I don't remember to be explicitly mentioned in the rules",0,0,0,0,3,0,0,2,3,0,0,0,0,0,1,0,2,0,3,3,0,1,3,3,0,0,2,0,2,3,1,1,2,0,2,2,2,0,1,0,3,3,3,1,0,2,1,1,1,3,0,4,1,3,4,3,0,1,0,4,2,2,0,"3351.2999999523163","static/images/instructions/Slide17.png","39","","","","","","","","","","","","","","","","","","",""
"","survey-multi-choice",78,318183,"0.0-4.0",59,20,"M",1665421884942,750,"q","w","Only if I get the answer right","You win money","A fixed time limit",4,"Male","when the middle one is lower, it looks like a mouse. I also took a some breaks when I noticed a dip in my performance, since I feel that this is a very impulse/intuition based task and that sense is worn out if I concentrate for too long","i'd rather not see the money value that I earned since the value is arbitrary to my performance. I tried spamming the same button to eventually get pass a level but turns out I was also punished for getting too many answers wrong, which I don't remember to be explicitly mentioned in the rules",0,0,0,0,3,0,0,2,3,0,0,0,0,0,1,0,2,0,3,3,0,1,3,3,0,0,2,0,2,3,1,1,2,0,2,2,2,0,1,0,3,3,3,1,0,2,1,1,1,3,0,4,1,3,4,3,0,1,0,4,2,2,0,"28791.200000047684","","","","","","","","","","","","","","{""q1"":""q"",""q2"":""w"",""q3"":""Only if I get the answer right"",""q4"":""You win money"",""q5"":""A fixed time limit""}","[1,0,4,3,2]","","","","","",""
"","image-keyboard-response",79,324748,"0.0-5.0-0.0",59,20,"M",1665421884942,750,"q","w","Only if I get the answer right","You win money","A fixed time limit",4,"Male","when the middle one is lower, it looks like a mouse. I also took a some breaks when I noticed a dip in my performance, since I feel that this is a very impulse/intuition based task and that sense is worn out if I concentrate for too long","i'd rather not see the money value that I earned since the value is arbitrary to my performance. I tried spamming the same button to eventually get pass a level but turns out I was also punished for getting too many answers wrong, which I don't remember to be explicitly mentioned in the rules",0,0,0,0,3,0,0,2,3,0,0,0,0,0,1,0,2,0,3,3,0,1,3,3,0,0,2,0,2,3,1,1,2,0,2,2,2,0,1,0,3,3,3,1,0,2,1,1,1,3,0,4,1,3,4,3,0,1,0,4,2,2,0,"6539.799999952316","static/images/instructions/Slide18.png","39","","","","","","","","","","","","","","","","","","",""
"","html-keyboard-response",80,325753,"0.0-6.0-0.0-0.0",59,20,"M",1665421884942,750,"q","w","Only if I get the answer right","You win money","A fixed time limit",4,"Male","when the middle one is lower, it looks like a mouse. I also took a some breaks when I noticed a dip in my performance, since I feel that this is a very impulse/intuition based task and that sense is worn out if I concentrate for too long","i'd rather not see the money value that I earned since the value is arbitrary to my performance. I tried spamming the same button to eventually get pass a level but turns out I was also punished for getting too many answers wrong, which I don't remember to be explicitly mentioned in the rules",0,0,0,0,3,0,0,2,3,0,0,0,0,0,1,0,2,0,3,3,0,1,3,3,0,0,2,0,2,3,1,1,2,0,2,2,2,0,1,0,3,3,3,1,0,2,1,1,1,3,0,4,1,3,4,3,0,1,0,4,2,2,0,"null","<div style=""font-size:75px;"">3</div>","null","","","","","","","","","","","","","","","","","","",""
"","html-keyboard-response",81,326770,"0.0-6.0-0.1-0.1",59,20,"M",1665421884942,750,"q","w","Only if I get the answer right","You win money","A fixed time limit",4,"Male","when the middle one is lower, it looks like a mouse. I also took a some breaks when I noticed a dip in my performance, since I feel that this is a very impulse/intuition based task and that sense is worn out if I concentrate for too long","i'd rather not see the money value that I earned since the value is arbitrary to my performance. I tried spamming the same button to eventually get pass a level but turns out I was also punished for getting too many answers wrong, which I don't remember to be explicitly mentioned in the rules",0,0,0,0,3,0,0,2,3,0,0,0,0,0,1,0,2,0,3,3,0,1,3,3,0,0,2,0,2,3,1,1,2,0,2,2,2,0,1,0,3,3,3,1,0,2,1,1,1,3,0,4,1,3,4,3,0,1,0,4,2,2,0,"null","<div style=""font-size:75px;"">2</div>","null","","","","","","","","","","","","","","","","","","",""
"","html-keyboard-response",82,327774,"0.0-6.0-0.2-0.2",59,20,"M",1665421884942,750,"q","w","Only if I get the answer right","You win money","A fixed time limit",4,"Male","when the middle one is lower, it looks like a mouse. I also took a some breaks when I noticed a dip in my performance, since I feel that this is a very impulse/intuition based task and that sense is worn out if I concentrate for too long","i'd rather not see the money value that I earned since the value is arbitrary to my performance. I tried spamming the same button to eventually get pass a level but turns out I was also punished for getting too many answers wrong, which I don't remember to be explicitly mentioned in the rules",0,0,0,0,3,0,0,2,3,0,0,0,0,0,1,0,2,0,3,3,0,1,3,3,0,0,2,0,2,3,1,1,2,0,2,2,2,0,1,0,3,3,3,1,0,2,1,1,1,3,0,4,1,3,4,3,0,1,0,4,2,2,0,"null","<div style=""font-size:75px;"">1</div>","null","","","","","","","","","","","","","","","","","","",""
"","html-keyboard-response",83,328575,"0.0-6.0-1.0-0.0",59,20,"M",1665421884942,750,"q","w","Only if I get the answer right","You win money","A fixed time limit",4,"Male","when the middle one is lower, it looks like a mouse. I also took a some breaks when I noticed a dip in my performance, since I feel that this is a very impulse/intuition based task and that sense is worn out if I concentrate for too long","i'd rather not see the money value that I earned since the value is arbitrary to my performance. I tried spamming the same button to eventually get pass a level but turns out I was also punished for getting too many answers wrong, which I don't remember to be explicitly mentioned in the rules",0,0,0,0,3,0,0,2,3,0,0,0,0,0,1,0,2,0,3,3,0,1,3,3,0,0,2,0,2,3,1,1,2,0,2,2,2,0,1,0,3,3,3,1,0,2,1,1,1,3,0,4,1,3,4,3,0,1,0,4,2,2,0,"null","<br><br><br><br><table><tr><td><img src=static/images/oddball_down.png></td><td><img src=static/images/oddball_down.png></td><td><img src=static/images/oddball_up.png></td></tr></table>","null","","","","","","","","","","","","","","","","","","",""
"","html-keyboard-response",84,328680,"0.0-6.0-1.0-1.0",59,20,"M",1665421884942,750,"q","w","Only if I get the answer right","You win money","A fixed time limit",4,"Male","when the middle one is lower, it looks like a mouse. I also took a some breaks when I noticed a dip in my performance, since I feel that this is a very impulse/intuition based task and that sense is worn out if I concentrate for too long","i'd rather not see the money value that I earned since the value is arbitrary to my performance. I tried spamming the same button to eventually get pass a level but turns out I was also punished for getting too many answers wrong, which I don't remember to be explicitly mentioned in the rules",0,0,0,0,3,0,0,2,3,0,0,0,0,0,1,0,2,0,3,3,0,1,3,3,0,0,2,0,2,3,1,1,2,0,2,2,2,0,1,0,3,3,3,1,0,2,1,1,1,3,0,4,1,3,4,3,0,1,0,4,2,2,0,"null","","null","","true","0","0","down","up","2","e","0","0","1665422214002","","","true","60","0","0","0.2","true"
"","html-keyboard-response",85,329443,"0.0-6.0-1.1-0.1",59,20,"M",1665421884942,750,"q","w","Only if I get the answer right","You win money","A fixed time limit",4,"Male","when the middle one is lower, it looks like a mouse. I also took a some breaks when I noticed a dip in my performance, since I feel that this is a very impulse/intuition based task and that sense is worn out if I concentrate for too long","i'd rather not see the money value that I earned since the value is arbitrary to my performance. I tried spamming the same button to eventually get pass a level but turns out I was also punished for getting too many answers wrong, which I don't remember to be explicitly mentioned in the rules",0,0,0,0,3,0,0,2,3,0,0,0,0,0,1,0,2,0,3,3,0,1,3,3,0,0,2,0,2,3,1,1,2,0,2,2,2,0,1,0,3,3,3,1,0,2,1,1,1,3,0,4,1,3,4,3,0,1,0,4,2,2,0,"null","<br><br><br><br><table><tr><td><img src=static/images/oddball_up.png></td><td><img src=static/images/oddball_up.png></td><td><img src=static/images/oddball_down.png></td></tr></table>","null","","","","","","","","","","","","","","","","","","",""
"","html-keyboard-response",86,329559,"0.0-6.0-1.1-1.1",59,20,"M",1665421884942,750,"q","w","Only if I get the answer right","You win money","A fixed time limit",4,"Male","when the middle one is lower, it looks like a mouse. I also took a some breaks when I noticed a dip in my performance, since I feel that this is a very impulse/intuition based task and that sense is worn out if I concentrate for too long","i'd rather not see the money value that I earned since the value is arbitrary to my performance. I tried spamming the same button to eventually get pass a level but turns out I was also punished for getting too many answers wrong, which I don't remember to be explicitly mentioned in the rules",0,0,0,0,3,0,0,2,3,0,0,0,0,0,1,0,2,0,3,3,0,1,3,3,0,0,2,0,2,3,1,1,2,0,2,2,2,0,1,0,3,3,3,1,0,2,1,1,1,3,0,4,1,3,4,3,0,1,0,4,2,2,0,"null","","null","","true","0","1","up","down","2","e","0","0","1665422214882","","","true","60","1","0","0.2","true"
"","html-keyboard-response",87,329596,"0.0-6.0-1.2-0.2",59,20,"M",1665421884942,750,"q","w","Only if I get the answer right","You win money","A fixed time limit",4,"Male","when the middle one is lower, it looks like a mouse. I also took a some breaks when I noticed a dip in my performance, since I feel that this is a very impulse/intuition based task and that sense is worn out if I concentrate for too long","i'd rather not see the money value that I earned since the value is arbitrary to my performance. I tried spamming the same button to eventually get pass a level but turns out I was also punished for getting too many answers wrong, which I don't remember to be explicitly mentioned in the rules",0,0,0,0,3,0,0,2,3,0,0,0,0,0,1,0,2,0,3,3,0,1,3,3,0,0,2,0,2,3,1,1,2,0,2,2,2,0,1,0,3,3,3,1,0,2,1,1,1,3,0,4,1,3,4,3,0,1,0,4,2,2,0,"35.59999990463257","<br><br><br><br><table><tr><td><img src=static/images/oddball_down.png></td><td><img src=static/images/oddball_up.png></td><td><img src=static/images/oddball_up.png></td></tr></table>","69","1","","","","","","","","","","","","","","","","","",""
"","html-keyboard-response",88,329729.482919151,"0.0-6.0-1.2-1.2",59,20,"M",1665421884942,750,"q","w","Only if I get the answer right","You win money","A fixed time limit",4,"Male","when the middle one is lower, it looks like a mouse. I also took a some breaks when I noticed a dip in my performance, since I feel that this is a very impulse/intuition based task and that sense is worn out if I concentrate for too long","i'd rather not see the money value that I earned since the value is arbitrary to my performance. I tried spamming the same button to eventually get pass a level but turns out I was also punished for getting too many answers wrong, which I don't remember to be explicitly mentioned in the rules",0,0,0,0,3,0,0,2,3,0,0,0,0,0,1,0,2,0,3,3,0,1,3,3,0,0,2,0,2,3,1,1,2,0,2,2,2,0,1,0,3,3,3,1,0,2,1,1,1,3,0,4,1,3,4,3,0,1,0,4,2,2,0,"59.0829190556272","","e","","true","0","2","up","down","0","q","0","0","1665422215051.48","","","true","60","2","0","0.2","false"
"","html-keyboard-response",89,330332,"0.0-6.0-1.3-0.3",59,20,"M",1665421884942,750,"q","w","Only if I get the answer right","You win money","A fixed time limit",4,"Male","when the middle one is lower, it looks like a mouse. I also took a some breaks when I noticed a dip in my performance, since I feel that this is a very impulse/intuition based task and that sense is worn out if I concentrate for too long","i'd rather not see the money value that I earned since the value is arbitrary to my performance. I tried spamming the same button to eventually get pass a level but turns out I was also punished for getting too many answers wrong, which I don't remember to be explicitly mentioned in the rules",0,0,0,0,3,0,0,2,3,0,0,0,0,0,1,0,2,0,3,3,0,1,3,3,0,0,2,0,2,3,1,1,2,0,2,2,2,0,1,0,3,3,3,1,0,2,1,1,1,3,0,4,1,3,4,3,0,1,0,4,2,2,0,"625.1999998092651","<br><br><br><br><table><tr><td><img src=static/images/oddball_down.png></td><td><img src=static/images/oddball_up.png></td><td><img src=static/images/oddball_down.png></td></tr></table>","87","1","","","","","","","","","","","","","","","","","",""
"","html-keyboard-response",90,330452.494563488,"0.0-6.0-1.3-1.3",59,20,"M",1665421884942,750,"q","w","Only if I get the answer right","You win money","A fixed time limit",4,"Male","when the middle one is lower, it looks like a mouse. I also took a some breaks when I noticed a dip in my performance, since I feel that this is a very impulse/intuition based task and that sense is worn out if I concentrate for too long","i'd rather not see the money value that I earned since the value is arbitrary to my performance. I tried spamming the same button to eventually get pass a level but turns out I was also punished for getting too many answers wrong, which I don't remember to be explicitly mentioned in the rules",0,0,0,0,3,0,0,2,3,0,0,0,0,0,1,0,2,0,3,3,0,1,3,3,0,0,2,0,2,3,1,1,2,0,2,2,2,0,1,0,3,3,3,1,0,2,1,1,1,3,0,4,1,3,4,3,0,1,0,4,2,2,0,"638.694563297531","","w","","true","0","3","down","up","1","w","1","0","1665422215774.49","","","true","60","3","0","0.2","false"
"","html-keyboard-response",91,330988,"0.0-6.0-1.4-0.4",59,20,"M",1665421884942,750,"q","w","Only if I get the answer right","You win money","A fixed time limit",4,"Male","when the middle one is lower, it looks like a mouse. I also took a some breaks when I noticed a dip in my performance, since I feel that this is a very impulse/intuition based task and that sense is worn out if I concentrate for too long","i'd rather not see the money value that I earned since the value is arbitrary to my performance. I tried spamming the same button to eventually get pass a level but turns out I was also punished for getting too many answers wrong, which I don't remember to be explicitly mentioned in the rules",0,0,0,0,3,0,0,2,3,0,0,0,0,0,1,0,2,0,3,3,0,1,3,3,0,0,2,0,2,3,1,1,2,0,2,2,2,0,1,0,3,3,3,1,0,2,1,1,1,3,0,4,1,3,4,3,0,1,0,4,2,2,0,"548.1000001430511","<br><br><br><br><table><tr><td><img src=static/images/oddball_up.png></td><td><img src=static/images/oddball_up.png></td><td><img src=static/images/oddball_down.png></td></tr></table>","69","1","","","","","","","","","","","","","","","","","",""
"","html-keyboard-response",92,331057.315376394,"0.0-6.0-1.4-1.4",59,20,"M",1665421884942,750,"q","w","Only if I get the answer right","You win money","A fixed time limit",4,"Male","when the middle one is lower, it looks like a mouse. I also took a some breaks when I noticed a dip in my performance, since I feel that this is a very impulse/intuition based task and that sense is worn out if I concentrate for too long","i'd rather not see the money value that I earned since the value is arbitrary to my performance. I tried spamming the same button to eventually get pass a level but turns out I was also punished for getting too many answers wrong, which I don't remember to be explicitly mentioned in the rules",0,0,0,0,3,0,0,2,3,0,0,0,0,0,1,0,2,0,3,3,0,1,3,3,0,0,2,0,2,3,1,1,2,0,2,2,2,0,1,0,3,3,3,1,0,2,1,1,1,3,0,4,1,3,4,3,0,1,0,4,2,2,0,"514.415376537361","","e","","true","0","4","up","down","2","e","1","0","1665422216379.32","","","true","60","4","0.0166666666666667","0.2","false"
"","html-keyboard-response",93,331660,"0.0-6.0-1.5-0.5",59,20,"M",1665421884942,750,"q","w","Only if I get the answer right","You win money","A fixed time limit",4,"Male","when the middle one is lower, it looks like a mouse. I also took a some breaks when I noticed a dip in my performance, since I feel that this is a very impulse/intuition based task and that sense is worn out if I concentrate for too long","i'd rather not see the money value that I earned since the value is arbitrary to my performance. I tried spamming the same button to eventually get pass a level but turns out I was also punished for getting too many answers wrong, which I don't remember to be explicitly mentioned in the rules",0,0,0,0,3,0,0,2,3,0,0,0,0,0,1,0,2,0,3,3,0,1,3,3,0,0,2,0,2,3,1,1,2,0,2,2,2,0,1,0,3,3,3,1,0,2,1,1,1,3,0,4,1,3,4,3,0,1,0,4,2,2,0,"568.1000001430511","<br><br><br><br><table><tr><td><img src=static/images/oddball_up.png></td><td><img src=static/images/oddball_up.png></td><td><img src=static/images/oddball_down.png></td></tr></table>","69","1","","","","","","","","","","","","","","","","","",""
"","html-keyboard-response",94,331830.440829388,"0.0-6.0-1.5-1.5",59,20,"M",1665421884942,750,"q","w","Only if I get the answer right","You win money","A fixed time limit",4,"Male","when the middle one is lower, it looks like a mouse. I also took a some breaks when I noticed a dip in my performance, since I feel that this is a very impulse/intuition based task and that sense is worn out if I concentrate for too long","i'd rather not see the money value that I earned since the value is arbitrary to my performance. I tried spamming the same button to eventually get pass a level but turns out I was also punished for getting too many answers wrong, which I don't remember to be explicitly mentioned in the rules",0,0,0,0,3,0,0,2,3,0,0,0,0,0,1,0,2,0,3,3,0,1,3,3,0,0,2,0,2,3,1,1,2,0,2,2,2,0,1,0,3,3,3,1,0,2,1,1,1,3,0,4,1,3,4,3,0,1,0,4,2,2,0,"622.540829531347","","e","","true","0","5","up","down","2","e","1","0","1665422217152.44","","","true","60","5","0.0333333333333333","0.2","false"
"","html-keyboard-response",95,332268,"0.0-6.0-1.6-0.6",59,20,"M",1665421884942,750,"q","w","Only if I get the answer right","You win money","A fixed time limit",4,"Male","when the middle one is lower, it looks like a mouse. I also took a some breaks when I noticed a dip in my performance, since I feel that this is a very impulse/intuition based task and that sense is worn out if I concentrate for too long","i'd rather not see the money value that I earned since the value is arbitrary to my performance. I tried spamming the same button to eventually get pass a level but turns out I was also punished for getting too many answers wrong, which I don't remember to be explicitly mentioned in the rules",0,0,0,0,3,0,0,2,3,0,0,0,0,0,1,0,2,0,3,3,0,1,3,3,0,0,2,0,2,3,1,1,2,0,2,2,2,0,1,0,3,3,3,1,0,2,1,1,1,3,0,4,1,3,4,3,0,1,0,4,2,2,0,"491.2999999523163","<br><br><br><br><table><tr><td><img src=static/images/oddball_down.png></td><td><img src=static/images/oddball_up.png></td><td><img src=static/images/oddball_up.png></td></tr></table>","81","1","","","","","","","","","","","","","","","","","",""
"","html-keyboard-response",96,332393.012392263,"0.0-6.0-1.6-1.6",59,20,"M",1665421884942,750,"q","w","Only if I get the answer right","You win money","A fixed time limit",4,"Male","when the middle one is lower, it looks like a mouse. I also took a some breaks when I noticed a dip in my performance, since I feel that this is a very impulse/intuition based task and that sense is worn out if I concentrate for too long","i'd rather not see the money value that I earned since the value is arbitrary to my performance. I tried spamming the same button to eventually get pass a level but turns out I was also punished for getting too many answers wrong, which I don't remember to be explicitly mentioned in the rules",0,0,0,0,3,0,0,2,3,0,0,0,0,0,1,0,2,0,3,3,0,1,3,3,0,0,2,0,2,3,1,1,2,0,2,2,2,0,1,0,3,3,3,1,0,2,1,1,1,3,0,4,1,3,4,3,0,1,0,4,2,2,0,"507.312392214994","","q","","true","0","6","up","down","0","q","1","0","1665422217715.01","","","true","60","6","0.05","0.2","false"
"","html-keyboard-response",97,332900,"0.0-6.0-1.7-0.7",59,20,"M",1665421884942,750,"q","w","Only if I get the answer right","You win money","A fixed time limit",4,"Male","when the middle one is lower, it looks like a mouse. I also took a some breaks when I noticed a dip in my performance, since I feel that this is a very impulse/intuition based task and that sense is worn out if I concentrate for too long","i'd rather not see the money value that I earned since the value is arbitrary to my performance. I tried spamming the same button to eventually get pass a level but turns out I was also punished for getting too many answers wrong, which I don't remember to be explicitly mentioned in the rules",0,0,0,0,3,0,0,2,3,0,0,0,0,0,1,0,2,0,3,3,0,1,3,3,0,0,2,0,2,3,1,1,2,0,2,2,2,0,1,0,3,3,3,1,0,2,1,1,1,3,0,4,1,3,4,3,0,1,0,4,2,2,0,"521.7000000476837","<br><br><br><br><table><tr><td><img src=static/images/oddball_up.png></td><td><img src=static/images/oddball_down.png></td><td><img src=static/images/oddball_down.png></td></tr></table>","81","1","","","","","","","","","","","","","","","","","",""
"","html-keyboard-response",98,332925.928572898,"0.0-6.0-1.7-1.7",59,20,"M",1665421884942,750,"q","w","Only if I get the answer right","You win money","A fixed time limit",4,"Male","when the middle one is lower, it looks like a mouse. I also took a some breaks when I noticed a dip in my performance, since I feel that this is a very impulse/intuition based task and that sense is worn out if I concentrate for too long","i'd rather not see the money value that I earned since the value is arbitrary to my performance. I tried spamming the same button to eventually get pass a level but turns out I was also punished for getting too many answers wrong, which I don't remember to be explicitly mentioned in the rules",0,0,0,0,3,0,0,2,3,0,0,0,0,0,1,0,2,0,3,3,0,1,3,3,0,0,2,0,2,3,1,1,2,0,2,2,2,0,1,0,3,3,3,1,0,2,1,1,1,3,0,4,1,3,4,3,0,1,0,4,2,2,0,"436.628572946035","","q","","true","0","7","down","up","0","q","1","0","1665422218247.93","","","true","60","7","0.0666666666666667","0.2","false"
