"success","trial_type","trial_index","time_elapsed","internal_node_id","subject","age","sex","date","deadline","instQ1","instQ2","instQ3","instQ4","instQ5","totalInstQ","gender","strategy","comments","DASS1_s","DASS2_a","DASS3_d","DASS4_a","DASS5_d","DASS6_s","DASS7_a","DASS8_s","DASS9_a","DASS10_d","DASS11_s","DASS12_s","DASS13_d","DASS14_s","DASS15_a","DASS16_d","DASS17_d","DASS18_s","DASS19_a","DASS20_a","DASS21_d","BB1","BB2","BB3","BB4","BB5","BB6","BB7","BB8","BB9","BB10","BB11","BB12","BB13","BB14","BB15","BB16","BB17","BB18","BB19","BB20","BB21","BB22","BB23","BB24","NFC1","NFC2","NFC3","NFC4","NFC5","NFC6","NFC7","NFC8","NFC9","NFC10","NFC11","NFC12","NFC13","NFC14","NFC15","NFC16","NFC17","NFC18","rt","stimulus","key_press","npress","isDataTrial","block","trialinblock","common","odd","oddidx","correct_ans","accuracy","totalTokens","timestamp","responses","question_order","showprog","blocklen","trial","progress","reward","timedout"
"true","fullscreen",0,10084,"0.0-0.0",67,"twenty years old","f",1665592556096,750,"q","w","Only if I get the answer right","You win money","A fixed time limit",4,"female","keep the clicking rhythm steady","It's fun",1,0,0,0,1,2,0,1,0,0,0,0,0,1,0,1,0,0,1,0,0,1,2,2,1,2,0,0,1,2,2,1,2,1,1,2,2,1,1,0,1,2,2,0,0,2,2,3,2,3,3,3,3,4,3,2,0,1,3,3,3,3,2,"","","","","","","","","","","","","","","","","","","","","",""
"","image-keyboard-response",1,139915,"0.0-1.0-0.0",67,"twenty years old","f",1665592556096,750,"q","w","Only if I get the answer right","You win money","A fixed time limit",4,"female","keep the clicking rhythm steady","It's fun",1,0,0,0,1,2,0,1,0,0,0,0,0,1,0,1,0,0,1,0,0,1,2,2,1,2,0,0,1,2,2,1,2,1,1,2,2,1,1,0,1,2,2,0,0,2,2,3,2,3,3,3,3,4,3,2,0,1,3,3,3,3,2,"129578.5","static/images/instructions/Slide1.png","39","","","","","","","","","","","","","","","","","","",""
"","image-keyboard-response",2,140774,"0.0-1.1-0.1",67,"twenty years old","f",1665592556096,750,"q","w","Only if I get the answer right","You win money","A fixed time limit",4,"female","keep the clicking rhythm steady","It's fun",1,0,0,0,1,2,0,1,0,0,0,0,0,1,0,1,0,0,1,0,0,1,2,2,1,2,0,0,1,2,2,1,2,1,1,2,2,1,1,0,1,2,2,0,0,2,2,3,2,3,3,3,3,4,3,2,0,1,3,3,3,3,2,"765.2000000476837","static/images/instructions/Slide2.png","39","","","","","","","","","","","","","","","","","","",""
"","image-keyboard-response",3,156900,"0.0-1.2-0.2",67,"twenty years old","f",1665592556096,750,"q","w","Only if I get the answer right","You win money","A fixed time limit",4,"female","keep the clicking rhythm steady","It's fun",1,0,0,0,1,2,0,1,0,0,0,0,0,1,0,1,0,0,1,0,0,1,2,2,1,2,0,0,1,2,2,1,2,1,1,2,2,1,1,0,1,2,2,0,0,2,2,3,2,3,3,3,3,4,3,2,0,1,3,3,3,3,2,"16125.099999904633","static/images/instructions/Slide3.png","39","","","","","","","","","","","","","","","","","","",""
"","image-keyboard-response",4,161574,"0.0-1.3-0.3",67,"twenty years old","f",1665592556096,750,"q","w","Only if I get the answer right","You win money","A fixed time limit",4,"female","keep the clicking rhythm steady","It's fun",1,0,0,0,1,2,0,1,0,0,0,0,0,1,0,1,0,0,1,0,0,1,2,2,1,2,0,0,1,2,2,1,2,1,1,2,2,1,1,0,1,2,2,0,0,2,2,3,2,3,3,3,3,4,3,2,0,1,3,3,3,3,2,"4672.700000047684","static/images/instructions/Slide4.png","39","","","","","","","","","","","","","","","","","","",""
"","image-keyboard-response",5,165798,"0.0-1.4-0.4",67,"twenty years old","f",1665592556096,750,"q","w","Only if I get the answer right","You win money","A fixed time limit",4,"female","keep the clicking rhythm steady","It's fun",1,0,0,0,1,2,0,1,0,0,0,0,0,1,0,1,0,0,1,0,0,1,2,2,1,2,0,0,1,2,2,1,2,1,1,2,2,1,1,0,1,2,2,0,0,2,2,3,2,3,3,3,3,4,3,2,0,1,3,3,3,3,2,"4160.599999904633","static/images/instructions/Slide5.png","39","","","","","","","","","","","","","","","","","","",""
"","image-keyboard-response",6,167670,"0.0-1.5-0.5",67,"twenty years old","f",1665592556096,750,"q","w","Only if I get the answer right","You win money","A fixed time limit",4,"female","keep the clicking rhythm steady","It's fun",1,0,0,0,1,2,0,1,0,0,0,0,0,1,0,1,0,0,1,0,0,1,2,2,1,2,0,0,1,2,2,1,2,1,1,2,2,1,1,0,1,2,2,0,0,2,2,3,2,3,3,3,3,4,3,2,0,1,3,3,3,3,2,"1871.2000000476837","static/images/instructions/Slide6.png","39","","","","","","","","","","","","","","","","","","",""
"","image-keyboard-response",7,250052,"0.0-1.6-0.6",67,"twenty years old","f",1665592556096,750,"q","w","Only if I get the answer right","You win money","A fixed time limit",4,"female","keep the clicking rhythm steady","It's fun",1,0,0,0,1,2,0,1,0,0,0,0,0,1,0,1,0,0,1,0,0,1,2,2,1,2,0,0,1,2,2,1,2,1,1,2,2,1,1,0,1,2,2,0,0,2,2,3,2,3,3,3,3,4,3,2,0,1,3,3,3,3,2,"82383.39999985695","static/images/instructions/Slide7.png","39","","","","","","","","","","","","","","","","","","",""
"","html-keyboard-response",8,254242,"0.0-2.0-0.0",67,"twenty years old","f",1665592556096,750,"q","w","Only if I get the answer right","You win money","A fixed time limit",4,"female","keep the clicking rhythm steady","It's fun",1,0,0,0,1,2,0,1,0,0,0,0,0,1,0,1,0,0,1,0,0,1,2,2,1,2,0,0,1,2,2,1,2,1,1,2,2,1,1,0,1,2,2,0,0,2,2,3,2,3,3,3,3,4,3,2,0,1,3,3,3,3,2,"2800.7000000476837","<br><br><br><br><table><tr><td><img src=static/images/oddball_down.png></td><td><img src=static/images/oddball_up.png></td><td><img src=static/images/oddball_up.png></td></tr></table>","69","3","","","","","","","","","","","","","","","","","",""
"","html-keyboard-response",9,259680,"0.0-2.0-1.0",67,"twenty years old","f",1665592556096,750,"q","w","Only if I get the answer right","You win money","A fixed time limit",4,"female","keep the clicking rhythm steady","It's fun",1,0,0,0,1,2,0,1,0,0,0,0,0,1,0,1,0,0,1,0,0,1,2,2,1,2,0,0,1,2,2,1,2,1,1,2,2,1,1,0,1,2,2,0,0,2,2,3,2,3,3,3,3,4,3,2,0,1,3,3,3,3,2,"null","<div style=""font-size:75px;""><b>Incorrect</b></div><br><br><div font-size:50px;"">The left shape was the odd one out, so you needed to press Q!</div>","null","","","","","","","","","","","","","","","","","","",""
"","html-keyboard-response",10,260711,"0.0-2.0-2.0",67,"twenty years old","f",1665592556096,750,"q","w","Only if I get the answer right","You win money","A fixed time limit",4,"female","keep the clicking rhythm steady","It's fun",1,0,0,0,1,2,0,1,0,0,0,0,0,1,0,1,0,0,1,0,0,1,2,2,1,2,0,0,1,2,2,1,2,1,1,2,2,1,1,0,1,2,2,0,0,2,2,3,2,3,3,3,3,4,3,2,0,1,3,3,3,3,2,"2800.7000000476837","","e","","true","practice","0","up","down","0","q","0","0","1665592820104","","","","","","","",""
"","html-keyboard-response",11,261724,"0.0-2.1-0.1",67,"twenty years old","f",1665592556096,750,"q","w","Only if I get the answer right","You win money","A fixed time limit",4,"female","keep the clicking rhythm steady","It's fun",1,0,0,0,1,2,0,1,0,0,0,0,0,1,0,1,0,0,1,0,0,1,2,2,1,2,0,0,1,2,2,1,2,1,1,2,2,1,1,0,1,2,2,0,0,2,2,3,2,3,3,3,3,4,3,2,0,1,3,3,3,3,2,"1011.8999998569489","<br><br><br><br><table><tr><td><img src=static/images/oddball_down.png></td><td><img src=static/images/oddball_down.png></td><td><img src=static/images/oddball_up.png></td></tr></table>","69","1","","","","","","","","","","","","","","","","","",""
"","html-keyboard-response",12,264240,"0.0-2.1-1.1",67,"twenty years old","f",1665592556096,750,"q","w","Only if I get the answer right","You win money","A fixed time limit",4,"female","keep the clicking rhythm steady","It's fun",1,0,0,0,1,2,0,1,0,0,0,0,0,1,0,1,0,0,1,0,0,1,2,2,1,2,0,0,1,2,2,1,2,1,1,2,2,1,1,0,1,2,2,0,0,2,2,3,2,3,3,3,3,4,3,2,0,1,3,3,3,3,2,"null","<div style=""font-size:75px;""><b>Correct</b></div>","null","","","","","","","","","","","","","","","","","","",""
"","html-keyboard-response",13,265323,"0.0-2.1-2.1",67,"twenty years old","f",1665592556096,750,"q","w","Only if I get the answer right","You win money","A fixed time limit",4,"female","keep the clicking rhythm steady","It's fun",1,0,0,0,1,2,0,1,0,0,0,0,0,1,0,1,0,0,1,0,0,1,2,2,1,2,0,0,1,2,2,1,2,1,1,2,2,1,1,0,1,2,2,0,0,2,2,3,2,3,3,3,3,4,3,2,0,1,3,3,3,3,2,"1011.8999998569489","","e","","true","practice","1","down","up","2","e","1","0","1665592824715","","","","","","","",""
"","html-keyboard-response",14,265860,"0.0-2.2-0.2",67,"twenty years old","f",1665592556096,750,"q","w","Only if I get the answer right","You win money","A fixed time limit",4,"female","keep the clicking rhythm steady","It's fun",1,0,0,0,1,2,0,1,0,0,0,0,0,1,0,1,0,0,1,0,0,1,2,2,1,2,0,0,1,2,2,1,2,1,1,2,2,1,1,0,1,2,2,0,0,2,2,3,2,3,3,3,3,4,3,2,0,1,3,3,3,3,2,"536","<br><br><br><br><table><tr><td><img src=static/images/oddball_up.png></td><td><img src=static/images/oddball_down.png></td><td><img src=static/images/oddball_down.png></td></tr></table>","81","1","","","","","","","","","","","","","","","","","",""
"","html-keyboard-response",15,268364,"0.0-2.2-1.2",67,"twenty years old","f",1665592556096,750,"q","w","Only if I get the answer right","You win money","A fixed time limit",4,"female","keep the clicking rhythm steady","It's fun",1,0,0,0,1,2,0,1,0,0,0,0,0,1,0,1,0,0,1,0,0,1,2,2,1,2,0,0,1,2,2,1,2,1,1,2,2,1,1,0,1,2,2,0,0,2,2,3,2,3,3,3,3,4,3,2,0,1,3,3,3,3,2,"null","<div style=""font-size:75px;""><b>Correct</b></div>","null","","","","","","","","","","","","","","","","","","",""
"","html-keyboard-response",16,269371,"0.0-2.2-2.2",67,"twenty years old","f",1665592556096,750,"q","w","Only if I get the answer right","You win money","A fixed time limit",4,"female","keep the clicking rhythm steady","It's fun",1,0,0,0,1,2,0,1,0,0,0,0,0,1,0,1,0,0,1,0,0,1,2,2,1,2,0,0,1,2,2,1,2,1,1,2,2,1,1,0,1,2,2,0,0,2,2,3,2,3,3,3,3,4,3,2,0,1,3,3,3,3,2,"536","","q","","true","practice","2","down","up","0","q","1","0","1665592828763","","","","","","","",""
"","html-keyboard-response",17,269852,"0.0-2.3-0.3",67,"twenty years old","f",1665592556096,750,"q","w","Only if I get the answer right","You win money","A fixed time limit",4,"female","keep the clicking rhythm steady","It's fun",1,0,0,0,1,2,0,1,0,0,0,0,0,1,0,1,0,0,1,0,0,1,2,2,1,2,0,0,1,2,2,1,2,1,1,2,2,1,1,0,1,2,2,0,0,2,2,3,2,3,3,3,3,4,3,2,0,1,3,3,3,3,2,"480.5","<br><br><br><br><table><tr><td><img src=static/images/oddball_up.png></td><td><img src=static/images/oddball_up.png></td><td><img src=static/images/oddball_down.png></td></tr></table>","69","1","","","","","","","","","","","","","","","","","",""
"","html-keyboard-response",18,272358,"0.0-2.3-1.3",67,"twenty years old","f",1665592556096,750,"q","w","Only if I get the answer right","You win money","A fixed time limit",4,"female","keep the clicking rhythm steady","It's fun",1,0,0,0,1,2,0,1,0,0,0,0,0,1,0,1,0,0,1,0,0,1,2,2,1,2,0,0,1,2,2,1,2,1,1,2,2,1,1,0,1,2,2,0,0,2,2,3,2,3,3,3,3,4,3,2,0,1,3,3,3,3,2,"null","<div style=""font-size:75px;""><b>Correct</b></div>","null","","","","","","","","","","","","","","","","","","",""
"","html-keyboard-response",19,273363,"0.0-2.3-2.3",67,"twenty years old","f",1665592556096,750,"q","w","Only if I get the answer right","You win money","A fixed time limit",4,"female","keep the clicking rhythm steady","It's fun",1,0,0,0,1,2,0,1,0,0,0,0,0,1,0,1,0,0,1,0,0,1,2,2,1,2,0,0,1,2,2,1,2,1,1,2,2,1,1,0,1,2,2,0,0,2,2,3,2,3,3,3,3,4,3,2,0,1,3,3,3,3,2,"480.5","","e","","true","practice","3","up","down","2","e","1","0","1665592832755","","","","","","","",""
"","html-keyboard-response",20,274196,"0.0-2.4-0.4",67,"twenty years old","f",1665592556096,750,"q","w","Only if I get the answer right","You win money","A fixed time limit",4,"female","keep the clicking rhythm steady","It's fun",1,0,0,0,1,2,0,1,0,0,0,0,0,1,0,1,0,0,1,0,0,1,2,2,1,2,0,0,1,2,2,1,2,1,1,2,2,1,1,0,1,2,2,0,0,2,2,3,2,3,3,3,3,4,3,2,0,1,3,3,3,3,2,"691.0999999046326","<br><br><br><br><table><tr><td><img src=static/images/oddball_down.png></td><td><img src=static/images/oddball_up.png></td><td><img src=static/images/oddball_down.png></td></tr></table>","87","1","","","","","","","","","","","","","","","","","",""
"","html-keyboard-response",21,276699,"0.0-2.4-1.4",67,"twenty years old","f",1665592556096,750,"q","w","Only if I get the answer right","You win money","A fixed time limit",4,"female","keep the clicking rhythm steady","It's fun",1,0,0,0,1,2,0,1,0,0,0,0,0,1,0,1,0,0,1,0,0,1,2,2,1,2,0,0,1,2,2,1,2,1,1,2,2,1,1,0,1,2,2,0,0,2,2,3,2,3,3,3,3,4,3,2,0,1,3,3,3,3,2,"null","<div style=""font-size:75px;""><b>Correct</b></div>","null","","","","","","","","","","","","","","","","","","",""
"","html-keyboard-response",22,277704,"0.0-2.4-2.4",67,"twenty years old","f",1665592556096,750,"q","w","Only if I get the answer right","You win money","A fixed time limit",4,"female","keep the clicking rhythm steady","It's fun",1,0,0,0,1,2,0,1,0,0,0,0,0,1,0,1,0,0,1,0,0,1,2,2,1,2,0,0,1,2,2,1,2,1,1,2,2,1,1,0,1,2,2,0,0,2,2,3,2,3,3,3,3,4,3,2,0,1,3,3,3,3,2,"691.0999999046326","","w","","true","practice","4","down","up","1","w","1","0","1665592837096","","","","","","","",""
"","html-keyboard-response",23,278284,"0.0-2.5-0.5",67,"twenty years old","f",1665592556096,750,"q","w","Only if I get the answer right","You win money","A fixed time limit",4,"female","keep the clicking rhythm steady","It's fun",1,0,0,0,1,2,0,1,0,0,0,0,0,1,0,1,0,0,1,0,0,1,2,2,1,2,0,0,1,2,2,1,2,1,1,2,2,1,1,0,1,2,2,0,0,2,2,3,2,3,3,3,3,4,3,2,0,1,3,3,3,3,2,"579.5999999046326","<br><br><br><br><table><tr><td><img src=static/images/oddball_down.png></td><td><img src=static/images/oddball_up.png></td><td><img src=static/images/oddball_up.png></td></tr></table>","81","1","","","","","","","","","","","","","","","","","",""
"","html-keyboard-response",24,280788,"0.0-2.5-1.5",67,"twenty years old","f",1665592556096,750,"q","w","Only if I get the answer right","You win money","A fixed time limit",4,"female","keep the clicking rhythm steady","It's fun",1,0,0,0,1,2,0,1,0,0,0,0,0,1,0,1,0,0,1,0,0,1,2,2,1,2,0,0,1,2,2,1,2,1,1,2,2,1,1,0,1,2,2,0,0,2,2,3,2,3,3,3,3,4,3,2,0,1,3,3,3,3,2,"null","<div style=""font-size:75px;""><b>Correct</b></div>","null","","","","","","","","","","","","","","","","","","",""
"","html-keyboard-response",25,282418,"0.0-2.5-2.5",67,"twenty years old","f",1665592556096,750,"q","w","Only if I get the answer right","You win money","A fixed time limit",4,"female","keep the clicking rhythm steady","It's fun",1,0,0,0,1,2,0,1,0,0,0,0,0,1,0,1,0,0,1,0,0,1,2,2,1,2,0,0,1,2,2,1,2,1,1,2,2,1,1,0,1,2,2,0,0,2,2,3,2,3,3,3,3,4,3,2,0,1,3,3,3,3,2,"579.5999999046326","","q","","true","practice","5","up","down","0","q","1","0","1665592841810","","","","","","","",""
"","html-keyboard-response",26,282892,"0.0-2.6-0.6",67,"twenty years old","f",1665592556096,750,"q","w","Only if I get the answer right","You win money","A fixed time limit",4,"female","keep the clicking rhythm steady","It's fun",1,0,0,0,1,2,0,1,0,0,0,0,0,1,0,1,0,0,1,0,0,1,2,2,1,2,0,0,1,2,2,1,2,1,1,2,2,1,1,0,1,2,2,0,0,2,2,3,2,3,3,3,3,4,3,2,0,1,3,3,3,3,2,"446.90000009536743","<br><br><br><br><table><tr><td><img src=static/images/oddball_up.png></td><td><img src=static/images/oddball_down.png></td><td><img src=static/images/oddball_down.png></td></tr></table>","81","1","","","","","","","","","","","","","","","","","",""
"","html-keyboard-response",27,285396,"0.0-2.6-1.6",67,"twenty years old","f",1665592556096,750,"q","w","Only if I get the answer right","You win money","A fixed time limit",4,"female","keep the clicking rhythm steady","It's fun",1,0,0,0,1,2,0,1,0,0,0,0,0,1,0,1,0,0,1,0,0,1,2,2,1,2,0,0,1,2,2,1,2,1,1,2,2,1,1,0,1,2,2,0,0,2,2,3,2,3,3,3,3,4,3,2,0,1,3,3,3,3,2,"null","<div style=""font-size:75px;""><b>Correct</b></div>","null","","","","","","","","","","","","","","","","","","",""
"","html-keyboard-response",28,286402,"0.0-2.6-2.6",67,"twenty years old","f",1665592556096,750,"q","w","Only if I get the answer right","You win money","A fixed time limit",4,"female","keep the clicking rhythm steady","It's fun",1,0,0,0,1,2,0,1,0,0,0,0,0,1,0,1,0,0,1,0,0,1,2,2,1,2,0,0,1,2,2,1,2,1,1,2,2,1,1,0,1,2,2,0,0,2,2,3,2,3,3,3,3,4,3,2,0,1,3,3,3,3,2,"446.90000009536743","","q","","true","practice","6","down","up","0","q","1","0","1665592845794","","","","","","","",""
"","html-keyboard-response",29,287108,"0.0-2.7-0.7",67,"twenty years old","f",1665592556096,750,"q","w","Only if I get the answer right","You win money","A fixed time limit",4,"female","keep the clicking rhythm steady","It's fun",1,0,0,0,1,2,0,1,0,0,0,0,0,1,0,1,0,0,1,0,0,1,2,2,1,2,0,0,1,2,2,1,2,1,1,2,2,1,1,0,1,2,2,0,0,2,2,3,2,3,3,3,3,4,3,2,0,1,3,3,3,3,2,"705.7000000476837","<br><br><br><br><table><tr><td><img src=static/images/oddball_up.png></td><td><img src=static/images/oddball_down.png></td><td><img src=static/images/oddball_up.png></td></tr></table>","87","1","","","","","","","","","","","","","","","","","",""
"","html-keyboard-response",30,289841,"0.0-2.7-1.7",67,"twenty years old","f",1665592556096,750,"q","w","Only if I get the answer right","You win money","A fixed time limit",4,"female","keep the clicking rhythm steady","It's fun",1,0,0,0,1,2,0,1,0,0,0,0,0,1,0,1,0,0,1,0,0,1,2,2,1,2,0,0,1,2,2,1,2,1,1,2,2,1,1,0,1,2,2,0,0,2,2,3,2,3,3,3,3,4,3,2,0,1,3,3,3,3,2,"null","<div style=""font-size:75px;""><b>Correct</b></div>","null","","","","","","","","","","","","","","","","","","",""
"","html-keyboard-response",31,290845,"0.0-2.7-2.7",67,"twenty years old","f",1665592556096,750,"q","w","Only if I get the answer right","You win money","A fixed time limit",4,"female","keep the clicking rhythm steady","It's fun",1,0,0,0,1,2,0,1,0,0,0,0,0,1,0,1,0,0,1,0,0,1,2,2,1,2,0,0,1,2,2,1,2,1,1,2,2,1,1,0,1,2,2,0,0,2,2,3,2,3,3,3,3,4,3,2,0,1,3,3,3,3,2,"705.7000000476837","","w","","true","practice","7","up","down","1","w","1","0","1665592850237","","","","","","","",""
"","html-keyboard-response",32,291588,"0.0-2.8-0.8",67,"twenty years old","f",1665592556096,750,"q","w","Only if I get the answer right","You win money","A fixed time limit",4,"female","keep the clicking rhythm steady","It's fun",1,0,0,0,1,2,0,1,0,0,0,0,0,1,0,1,0,0,1,0,0,1,2,2,1,2,0,0,1,2,2,1,2,1,1,2,2,1,1,0,1,2,2,0,0,2,2,3,2,3,3,3,3,4,3,2,0,1,3,3,3,3,2,"742.6000001430511","<br><br><br><br><table><tr><td><img src=static/images/oddball_up.png></td><td><img src=static/images/oddball_down.png></td><td><img src=static/images/oddball_down.png></td></tr></table>","81","1","","","","","","","","","","","","","","","","","",""
"","html-keyboard-response",33,294096,"0.0-2.8-1.8",67,"twenty years old","f",1665592556096,750,"q","w","Only if I get the answer right","You win money","A fixed time limit",4,"female","keep the clicking rhythm steady","It's fun",1,0,0,0,1,2,0,1,0,0,0,0,0,1,0,1,0,0,1,0,0,1,2,2,1,2,0,0,1,2,2,1,2,1,1,2,2,1,1,0,1,2,2,0,0,2,2,3,2,3,3,3,3,4,3,2,0,1,3,3,3,3,2,"null","<div style=""font-size:75px;""><b>Correct</b></div>","null","","","","","","","","","","","","","","","","","","",""
"","html-keyboard-response",34,295101,"0.0-2.8-2.8",67,"twenty years old","f",1665592556096,750,"q","w","Only if I get the answer right","You win money","A fixed time limit",4,"female","keep the clicking rhythm steady","It's fun",1,0,0,0,1,2,0,1,0,0,0,0,0,1,0,1,0,0,1,0,0,1,2,2,1,2,0,0,1,2,2,1,2,1,1,2,2,1,1,0,1,2,2,0,0,2,2,3,2,3,3,3,3,4,3,2,0,1,3,3,3,3,2,"742.6000001430511","","q","","true","practice","8","down","up","0","q","1","0","1665592854493","","","","","","","",""
"","html-keyboard-response",35,295548,"0.0-2.9-0.9",67,"twenty years old","f",1665592556096,750,"q","w","Only if I get the answer right","You win money","A fixed time limit",4,"female","keep the clicking rhythm steady","It's fun",1,0,0,0,1,2,0,1,0,0,0,0,0,1,0,1,0,0,1,0,0,1,2,2,1,2,0,0,1,2,2,1,2,1,1,2,2,1,1,0,1,2,2,0,0,2,2,3,2,3,3,3,3,4,3,2,0,1,3,3,3,3,2,"446","<br><br><br><br><table><tr><td><img src=static/images/oddball_down.png></td><td><img src=static/images/oddball_down.png></td><td><img src=static/images/oddball_up.png></td></tr></table>","69","1","","","","","","","","","","","","","","","","","",""
"","html-keyboard-response",36,298212,"0.0-2.9-1.9",67,"twenty years old","f",1665592556096,750,"q","w","Only if I get the answer right","You win money","A fixed time limit",4,"female","keep the clicking rhythm steady","It's fun",1,0,0,0,1,2,0,1,0,0,0,0,0,1,0,1,0,0,1,0,0,1,2,2,1,2,0,0,1,2,2,1,2,1,1,2,2,1,1,0,1,2,2,0,0,2,2,3,2,3,3,3,3,4,3,2,0,1,3,3,3,3,2,"null","<div style=""font-size:75px;""><b>Correct</b></div>","null","","","","","","","","","","","","","","","","","","",""
"","html-keyboard-response",37,299227,"0.0-2.9-2.9",67,"twenty years old","f",1665592556096,750,"q","w","Only if I get the answer right","You win money","A fixed time limit",4,"female","keep the clicking rhythm steady","It's fun",1,0,0,0,1,2,0,1,0,0,0,0,0,1,0,1,0,0,1,0,0,1,2,2,1,2,0,0,1,2,2,1,2,1,1,2,2,1,1,0,1,2,2,0,0,2,2,3,2,3,3,3,3,4,3,2,0,1,3,3,3,3,2,"446","","e","","true","practice","9","down","up","2","e","1","0","1665592858619","","","","","","","",""
"","html-keyboard-response",38,299756,"0.0-2.10-0.10",67,"twenty years old","f",1665592556096,750,"q","w","Only if I get the answer right","You win money","A fixed time limit",4,"female","keep the clicking rhythm steady","It's fun",1,0,0,0,1,2,0,1,0,0,0,0,0,1,0,1,0,0,1,0,0,1,2,2,1,2,0,0,1,2,2,1,2,1,1,2,2,1,1,0,1,2,2,0,0,2,2,3,2,3,3,3,3,4,3,2,0,1,3,3,3,3,2,"528.7000000476837","<br><br><br><br><table><tr><td><img src=static/images/oddball_down.png></td><td><img src=static/images/oddball_up.png></td><td><img src=static/images/oddball_down.png></td></tr></table>","87","1","","","","","","","","","","","","","","","","","",""
"","html-keyboard-response",39,302262,"0.0-2.10-1.10",67,"twenty years old","f",1665592556096,750,"q","w","Only if I get the answer right","You win money","A fixed time limit",4,"female","keep the clicking rhythm steady","It's fun",1,0,0,0,1,2,0,1,0,0,0,0,0,1,0,1,0,0,1,0,0,1,2,2,1,2,0,0,1,2,2,1,2,1,1,2,2,1,1,0,1,2,2,0,0,2,2,3,2,3,3,3,3,4,3,2,0,1,3,3,3,3,2,"null","<div style=""font-size:75px;""><b>Correct</b></div>","null","","","","","","","","","","","","","","","","","","",""
"","html-keyboard-response",40,303266,"0.0-2.10-2.10",67,"twenty years old","f",1665592556096,750,"q","w","Only if I get the answer right","You win money","A fixed time limit",4,"female","keep the clicking rhythm steady","It's fun",1,0,0,0,1,2,0,1,0,0,0,0,0,1,0,1,0,0,1,0,0,1,2,2,1,2,0,0,1,2,2,1,2,1,1,2,2,1,1,0,1,2,2,0,0,2,2,3,2,3,3,3,3,4,3,2,0,1,3,3,3,3,2,"528.7000000476837","","w","","true","practice","10","down","up","1","w","1","0","1665592862658","","","","","","","",""
"","html-keyboard-response",41,304452,"0.0-2.11-0.11",67,"twenty years old","f",1665592556096,750,"q","w","Only if I get the answer right","You win money","A fixed time limit",4,"female","keep the clicking rhythm steady","It's fun",1,0,0,0,1,2,0,1,0,0,0,0,0,1,0,1,0,0,1,0,0,1,2,2,1,2,0,0,1,2,2,1,2,1,1,2,2,1,1,0,1,2,2,0,0,2,2,3,2,3,3,3,3,4,3,2,0,1,3,3,3,3,2,"1185.7999999523163","<br><br><br><br><table><tr><td><img src=static/images/oddball_up.png></td><td><img src=static/images/oddball_down.png></td><td><img src=static/images/oddball_down.png></td></tr></table>","81","1","","","","","","","","","","","","","","","","","",""
"","html-keyboard-response",42,306955,"0.0-2.11-1.11",67,"twenty years old","f",1665592556096,750,"q","w","Only if I get the answer right","You win money","A fixed time limit",4,"female","keep the clicking rhythm steady","It's fun",1,0,0,0,1,2,0,1,0,0,0,0,0,1,0,1,0,0,1,0,0,1,2,2,1,2,0,0,1,2,2,1,2,1,1,2,2,1,1,0,1,2,2,0,0,2,2,3,2,3,3,3,3,4,3,2,0,1,3,3,3,3,2,"null","<div style=""font-size:75px;""><b>Correct</b></div>","null","","","","","","","","","","","","","","","","","","",""
"","html-keyboard-response",43,307960,"0.0-2.11-2.11",67,"twenty years old","f",1665592556096,750,"q","w","Only if I get the answer right","You win money","A fixed time limit",4,"female","keep the clicking rhythm steady","It's fun",1,0,0,0,1,2,0,1,0,0,0,0,0,1,0,1,0,0,1,0,0,1,2,2,1,2,0,0,1,2,2,1,2,1,1,2,2,1,1,0,1,2,2,0,0,2,2,3,2,3,3,3,3,4,3,2,0,1,3,3,3,3,2,"1185.7999999523163","","q","","true","practice","11","down","up","0","q","1","0","1665592867352","","","","","","","",""
"","html-keyboard-response",44,308508,"0.0-2.12-0.12",67,"twenty years old","f",1665592556096,750,"q","w","Only if I get the answer right","You win money","A fixed time limit",4,"female","keep the clicking rhythm steady","It's fun",1,0,0,0,1,2,0,1,0,0,0,0,0,1,0,1,0,0,1,0,0,1,2,2,1,2,0,0,1,2,2,1,2,1,1,2,2,1,1,0,1,2,2,0,0,2,2,3,2,3,3,3,3,4,3,2,0,1,3,3,3,3,2,"547.4000000953674","<br><br><br><br><table><tr><td><img src=static/images/oddball_down.png></td><td><img src=static/images/oddball_up.png></td><td><img src=static/images/oddball_down.png></td></tr></table>","87","1","","","","","","","","","","","","","","","","","",""
"","html-keyboard-response",45,311016,"0.0-2.12-1.12",67,"twenty years old","f",1665592556096,750,"q","w","Only if I get the answer right","You win money","A fixed time limit",4,"female","keep the clicking rhythm steady","It's fun",1,0,0,0,1,2,0,1,0,0,0,0,0,1,0,1,0,0,1,0,0,1,2,2,1,2,0,0,1,2,2,1,2,1,1,2,2,1,1,0,1,2,2,0,0,2,2,3,2,3,3,3,3,4,3,2,0,1,3,3,3,3,2,"null","<div style=""font-size:75px;""><b>Correct</b></div>","null","","","","","","","","","","","","","","","","","","",""
"","html-keyboard-response",46,312020,"0.0-2.12-2.12",67,"twenty years old","f",1665592556096,750,"q","w","Only if I get the answer right","You win money","A fixed time limit",4,"female","keep the clicking rhythm steady","It's fun",1,0,0,0,1,2,0,1,0,0,0,0,0,1,0,1,0,0,1,0,0,1,2,2,1,2,0,0,1,2,2,1,2,1,1,2,2,1,1,0,1,2,2,0,0,2,2,3,2,3,3,3,3,4,3,2,0,1,3,3,3,3,2,"547.4000000953674","","w","","true","practice","12","down","up","1","w","1","0","1665592871413","","","","","","","",""
"","html-keyboard-response",47,312582,"0.0-2.13-0.13",67,"twenty years old","f",1665592556096,750,"q","w","Only if I get the answer right","You win money","A fixed time limit",4,"female","keep the clicking rhythm steady","It's fun",1,0,0,0,1,2,0,1,0,0,0,0,0,1,0,1,0,0,1,0,0,1,2,2,1,2,0,0,1,2,2,1,2,1,1,2,2,1,1,0,1,2,2,0,0,2,2,3,2,3,3,3,3,4,3,2,0,1,3,3,3,3,2,"560.5999999046326","<br><br><br><br><table><tr><td><img src=static/images/oddball_up.png></td><td><img src=static/images/oddball_down.png></td><td><img src=static/images/oddball_up.png></td></tr></table>","87","1","","","","","","","","","","","","","","","","","",""
"","html-keyboard-response",48,316140,"0.0-2.13-1.13",67,"twenty years old","f",1665592556096,750,"q","w","Only if I get the answer right","You win money","A fixed time limit",4,"female","keep the clicking rhythm steady","It's fun",1,0,0,0,1,2,0,1,0,0,0,0,0,1,0,1,0,0,1,0,0,1,2,2,1,2,0,0,1,2,2,1,2,1,1,2,2,1,1,0,1,2,2,0,0,2,2,3,2,3,3,3,3,4,3,2,0,1,3,3,3,3,2,"null","<div style=""font-size:75px;""><b>Correct</b></div>","null","","","","","","","","","","","","","","","","","","",""
"","html-keyboard-response",49,317145,"0.0-2.13-2.13",67,"twenty years old","f",1665592556096,750,"q","w","Only if I get the answer right","You win money","A fixed time limit",4,"female","keep the clicking rhythm steady","It's fun",1,0,0,0,1,2,0,1,0,0,0,0,0,1,0,1,0,0,1,0,0,1,2,2,1,2,0,0,1,2,2,1,2,1,1,2,2,1,1,0,1,2,2,0,0,2,2,3,2,3,3,3,3,4,3,2,0,1,3,3,3,3,2,"560.5999999046326","","w","","true","practice","13","up","down","1","w","1","0","1665592876537","","","","","","","",""
"","html-keyboard-response",50,317854,"0.0-2.14-0.14",67,"twenty years old","f",1665592556096,750,"q","w","Only if I get the answer right","You win money","A fixed time limit",4,"female","keep the clicking rhythm steady","It's fun",1,0,0,0,1,2,0,1,0,0,0,0,0,1,0,1,0,0,1,0,0,1,2,2,1,2,0,0,1,2,2,1,2,1,1,2,2,1,1,0,1,2,2,0,0,2,2,3,2,3,3,3,3,4,3,2,0,1,3,3,3,3,2,"708.5999999046326","<br><br><br><br><table><tr><td><img src=static/images/oddball_down.png></td><td><img src=static/images/oddball_up.png></td><td><img src=static/images/oddball_down.png></td></tr></table>","81","1","","","","","","","","","","","","","","","","","",""
"","html-keyboard-response",51,320360,"0.0-2.14-1.14",67,"twenty years old","f",1665592556096,750,"q","w","Only if I get the answer right","You win money","A fixed time limit",4,"female","keep the clicking rhythm steady","It's fun",1,0,0,0,1,2,0,1,0,0,0,0,0,1,0,1,0,0,1,0,0,1,2,2,1,2,0,0,1,2,2,1,2,1,1,2,2,1,1,0,1,2,2,0,0,2,2,3,2,3,3,3,3,4,3,2,0,1,3,3,3,3,2,"null","<div style=""font-size:75px;""><b>Incorrect</b></div><br><br><div font-size:50px;"">The middle shape was the odd one out, so you needed to press W!</div>","null","","","","","","","","","","","","","","","","","","",""
"","html-keyboard-response",52,321369,"0.0-2.14-2.14",67,"twenty years old","f",1665592556096,750,"q","w","Only if I get the answer right","You win money","A fixed time limit",4,"female","keep the clicking rhythm steady","It's fun",1,0,0,0,1,2,0,1,0,0,0,0,0,1,0,1,0,0,1,0,0,1,2,2,1,2,0,0,1,2,2,1,2,1,1,2,2,1,1,0,1,2,2,0,0,2,2,3,2,3,3,3,3,4,3,2,0,1,3,3,3,3,2,"708.5999999046326","","q","","true","practice","14","down","up","1","w","0","0","1665592880761","","","","","","","",""
"","html-keyboard-response",53,322014,"0.0-2.15-0.15",67,"twenty years old","f",1665592556096,750,"q","w","Only if I get the answer right","You win money","A fixed time limit",4,"female","keep the clicking rhythm steady","It's fun",1,0,0,0,1,2,0,1,0,0,0,0,0,1,0,1,0,0,1,0,0,1,2,2,1,2,0,0,1,2,2,1,2,1,1,2,2,1,1,0,1,2,2,0,0,2,2,3,2,3,3,3,3,4,3,2,0,1,3,3,3,3,2,"644.1000001430511","<br><br><br><br><table><tr><td><img src=static/images/oddball_down.png></td><td><img src=static/images/oddball_down.png></td><td><img src=static/images/oddball_up.png></td></tr></table>","69","1","","","","","","","","","","","","","","","","","",""
"","html-keyboard-response",54,324522,"0.0-2.15-1.15",67,"twenty years old","f",1665592556096,750,"q","w","Only if I get the answer right","You win money","A fixed time limit",4,"female","keep the clicking rhythm steady","It's fun",1,0,0,0,1,2,0,1,0,0,0,0,0,1,0,1,0,0,1,0,0,1,2,2,1,2,0,0,1,2,2,1,2,1,1,2,2,1,1,0,1,2,2,0,0,2,2,3,2,3,3,3,3,4,3,2,0,1,3,3,3,3,2,"null","<div style=""font-size:75px;""><b>Correct</b></div>","null","","","","","","","","","","","","","","","","","","",""
"","html-keyboard-response",55,325527,"0.0-2.15-2.15",67,"twenty years old","f",1665592556096,750,"q","w","Only if I get the answer right","You win money","A fixed time limit",4,"female","keep the clicking rhythm steady","It's fun",1,0,0,0,1,2,0,1,0,0,0,0,0,1,0,1,0,0,1,0,0,1,2,2,1,2,0,0,1,2,2,1,2,1,1,2,2,1,1,0,1,2,2,0,0,2,2,3,2,3,3,3,3,4,3,2,0,1,3,3,3,3,2,"644.1000001430511","","e","","true","practice","15","down","up","2","e","1","0","1665592884919","","","","","","","",""
"","html-keyboard-response",56,326294,"0.0-2.16-0.16",67,"twenty years old","f",1665592556096,750,"q","w","Only if I get the answer right","You win money","A fixed time limit",4,"female","keep the clicking rhythm steady","It's fun",1,0,0,0,1,2,0,1,0,0,0,0,0,1,0,1,0,0,1,0,0,1,2,2,1,2,0,0,1,2,2,1,2,1,1,2,2,1,1,0,1,2,2,0,0,2,2,3,2,3,3,3,3,4,3,2,0,1,3,3,3,3,2,"766.2999999523163","<br><br><br><br><table><tr><td><img src=static/images/oddball_up.png></td><td><img src=static/images/oddball_up.png></td><td><img src=static/images/oddball_down.png></td></tr></table>","69","1","","","","","","","","","","","","","","","","","",""
"","html-keyboard-response",57,328798,"0.0-2.16-1.16",67,"twenty years old","f",1665592556096,750,"q","w","Only if I get the answer right","You win money","A fixed time limit",4,"female","keep the clicking rhythm steady","It's fun",1,0,0,0,1,2,0,1,0,0,0,0,0,1,0,1,0,0,1,0,0,1,2,2,1,2,0,0,1,2,2,1,2,1,1,2,2,1,1,0,1,2,2,0,0,2,2,3,2,3,3,3,3,4,3,2,0,1,3,3,3,3,2,"null","<div style=""font-size:75px;""><b>Correct</b></div>","null","","","","","","","","","","","","","","","","","","",""
"","html-keyboard-response",58,329803,"0.0-2.16-2.16",67,"twenty years old","f",1665592556096,750,"q","w","Only if I get the answer right","You win money","A fixed time limit",4,"female","keep the clicking rhythm steady","It's fun",1,0,0,0,1,2,0,1,0,0,0,0,0,1,0,1,0,0,1,0,0,1,2,2,1,2,0,0,1,2,2,1,2,1,1,2,2,1,1,0,1,2,2,0,0,2,2,3,2,3,3,3,3,4,3,2,0,1,3,3,3,3,2,"766.2999999523163","","e","","true","practice","16","up","down","2","e","1","0","1665592889195","","","","","","","",""
"","html-keyboard-response",59,330374,"0.0-2.17-0.17",67,"twenty years old","f",1665592556096,750,"q","w","Only if I get the answer right","You win money","A fixed time limit",4,"female","keep the clicking rhythm steady","It's fun",1,0,0,0,1,2,0,1,0,0,0,0,0,1,0,1,0,0,1,0,0,1,2,2,1,2,0,0,1,2,2,1,2,1,1,2,2,1,1,0,1,2,2,0,0,2,2,3,2,3,3,3,3,4,3,2,0,1,3,3,3,3,2,"570","<br><br><br><br><table><tr><td><img src=static/images/oddball_up.png></td><td><img src=static/images/oddball_up.png></td><td><img src=static/images/oddball_down.png></td></tr></table>","69","1","","","","","","","","","","","","","","","","","",""
"","html-keyboard-response",60,333028,"0.0-2.17-1.17",67,"twenty years old","f",1665592556096,750,"q","w","Only if I get the answer right","You win money","A fixed time limit",4,"female","keep the clicking rhythm steady","It's fun",1,0,0,0,1,2,0,1,0,0,0,0,0,1,0,1,0,0,1,0,0,1,2,2,1,2,0,0,1,2,2,1,2,1,1,2,2,1,1,0,1,2,2,0,0,2,2,3,2,3,3,3,3,4,3,2,0,1,3,3,3,3,2,"null","<div style=""font-size:75px;""><b>Correct</b></div>","null","","","","","","","","","","","","","","","","","","",""
"","html-keyboard-response",61,334043,"0.0-2.17-2.17",67,"twenty years old","f",1665592556096,750,"q","w","Only if I get the answer right","You win money","A fixed time limit",4,"female","keep the clicking rhythm steady","It's fun",1,0,0,0,1,2,0,1,0,0,0,0,0,1,0,1,0,0,1,0,0,1,2,2,1,2,0,0,1,2,2,1,2,1,1,2,2,1,1,0,1,2,2,0,0,2,2,3,2,3,3,3,3,4,3,2,0,1,3,3,3,3,2,"570","","e","","true","practice","17","up","down","2","e","1","0","1665592893435","","","","","","","",""
"","html-keyboard-response",62,334758,"0.0-2.18-0.18",67,"twenty years old","f",1665592556096,750,"q","w","Only if I get the answer right","You win money","A fixed time limit",4,"female","keep the clicking rhythm steady","It's fun",1,0,0,0,1,2,0,1,0,0,0,0,0,1,0,1,0,0,1,0,0,1,2,2,1,2,0,0,1,2,2,1,2,1,1,2,2,1,1,0,1,2,2,0,0,2,2,3,2,3,3,3,3,4,3,2,0,1,3,3,3,3,2,"714.0999999046326","<br><br><br><br><table><tr><td><img src=static/images/oddball_down.png></td><td><img src=static/images/oddball_down.png></td><td><img src=static/images/oddball_up.png></td></tr></table>","69","1","","","","","","","","","","","","","","","","","",""
"","html-keyboard-response",63,337262,"0.0-2.18-1.18",67,"twenty years old","f",1665592556096,750,"q","w","Only if I get the answer right","You win money","A fixed time limit",4,"female","keep the clicking rhythm steady","It's fun",1,0,0,0,1,2,0,1,0,0,0,0,0,1,0,1,0,0,1,0,0,1,2,2,1,2,0,0,1,2,2,1,2,1,1,2,2,1,1,0,1,2,2,0,0,2,2,3,2,3,3,3,3,4,3,2,0,1,3,3,3,3,2,"null","<div style=""font-size:75px;""><b>Correct</b></div>","null","","","","","","","","","","","","","","","","","","",""
"","html-keyboard-response",64,338269,"0.0-2.18-2.18",67,"twenty years old","f",1665592556096,750,"q","w","Only if I get the answer right","You win money","A fixed time limit",4,"female","keep the clicking rhythm steady","It's fun",1,0,0,0,1,2,0,1,0,0,0,0,0,1,0,1,0,0,1,0,0,1,2,2,1,2,0,0,1,2,2,1,2,1,1,2,2,1,1,0,1,2,2,0,0,2,2,3,2,3,3,3,3,4,3,2,0,1,3,3,3,3,2,"714.0999999046326","","e","","true","practice","18","down","up","2","e","1","0","1665592897661","","","","","","","",""
"","html-keyboard-response",65,339246,"0.0-2.19-0.19",67,"twenty years old","f",1665592556096,750,"q","w","Only if I get the answer right","You win money","A fixed time limit",4,"female","keep the clicking rhythm steady","It's fun",1,0,0,0,1,2,0,1,0,0,0,0,0,1,0,1,0,0,1,0,0,1,2,2,1,2,0,0,1,2,2,1,2,1,1,2,2,1,1,0,1,2,2,0,0,2,2,3,2,3,3,3,3,4,3,2,0,1,3,3,3,3,2,"976.3999998569489","<br><br><br><br><table><tr><td><img src=static/images/oddball_down.png></td><td><img src=static/images/oddball_up.png></td><td><img src=static/images/oddball_down.png></td></tr></table>","87","1","","","","","","","","","","","","","","","","","",""
"","html-keyboard-response",66,341754,"0.0-2.19-1.19",67,"twenty years old","f",1665592556096,750,"q","w","Only if I get the answer right","You win money","A fixed time limit",4,"female","keep the clicking rhythm steady","It's fun",1,0,0,0,1,2,0,1,0,0,0,0,0,1,0,1,0,0,1,0,0,1,2,2,1,2,0,0,1,2,2,1,2,1,1,2,2,1,1,0,1,2,2,0,0,2,2,3,2,3,3,3,3,4,3,2,0,1,3,3,3,3,2,"null","<div style=""font-size:75px;""><b>Correct</b></div>","null","","","","","","","","","","","","","","","","","","",""
"","html-keyboard-response",67,342759,"0.0-2.19-2.19",67,"twenty years old","f",1665592556096,750,"q","w","Only if I get the answer right","You win money","A fixed time limit",4,"female","keep the clicking rhythm steady","It's fun",1,0,0,0,1,2,0,1,0,0,0,0,0,1,0,1,0,0,1,0,0,1,2,2,1,2,0,0,1,2,2,1,2,1,1,2,2,1,1,0,1,2,2,0,0,2,2,3,2,3,3,3,3,4,3,2,0,1,3,3,3,3,2,"976.3999998569489","","w","","true","practice","19","down","up","1","w","1","0","1665592902151","","","","","","","",""
"","image-keyboard-response",68,355398,"0.0-3.0-0.0",67,"twenty years old","f",1665592556096,750,"q","w","Only if I get the answer right","You win money","A fixed time limit",4,"female","keep the clicking rhythm steady","It's fun",1,0,0,0,1,2,0,1,0,0,0,0,0,1,0,1,0,0,1,0,0,1,2,2,1,2,0,0,1,2,2,1,2,1,1,2,2,1,1,0,1,2,2,0,0,2,2,3,2,3,3,3,3,4,3,2,0,1,3,3,3,3,2,"12586.200000047684","static/images/instructions/Slide8.png","39","","","","","","","","","","","","","","","","","","",""
"","image-keyboard-response",69,373063,"0.0-3.1-0.1",67,"twenty years old","f",1665592556096,750,"q","w","Only if I get the answer right","You win money","A fixed time limit",4,"female","keep the clicking rhythm steady","It's fun",1,0,0,0,1,2,0,1,0,0,0,0,0,1,0,1,0,0,1,0,0,1,2,2,1,2,0,0,1,2,2,1,2,1,1,2,2,1,1,0,1,2,2,0,0,2,2,3,2,3,3,3,3,4,3,2,0,1,3,3,3,3,2,"17332.5","static/images/instructions/Slide9.png","39","","","","","","","","","","","","","","","","","","",""
"","image-keyboard-response",70,387894,"0.0-3.2-0.2",67,"twenty years old","f",1665592556096,750,"q","w","Only if I get the answer right","You win money","A fixed time limit",4,"female","keep the clicking rhythm steady","It's fun",1,0,0,0,1,2,0,1,0,0,0,0,0,1,0,1,0,0,1,0,0,1,2,2,1,2,0,0,1,2,2,1,2,1,1,2,2,1,1,0,1,2,2,0,0,2,2,3,2,3,3,3,3,4,3,2,0,1,3,3,3,3,2,"14830.799999952316","static/images/instructions/Slide10.png","39","","","","","","","","","","","","","","","","","","",""
"","image-keyboard-response",71,398054,"0.0-3.3-0.3",67,"twenty years old","f",1665592556096,750,"q","w","Only if I get the answer right","You win money","A fixed time limit",4,"female","keep the clicking rhythm steady","It's fun",1,0,0,0,1,2,0,1,0,0,0,0,0,1,0,1,0,0,1,0,0,1,2,2,1,2,0,0,1,2,2,1,2,1,1,2,2,1,1,0,1,2,2,0,0,2,2,3,2,3,3,3,3,4,3,2,0,1,3,3,3,3,2,"10159.400000095367","static/images/instructions/Slide11.png","39","","","","","","","","","","","","","","","","","","",""
"","image-keyboard-response",72,400622,"0.0-3.4-0.4",67,"twenty years old","f",1665592556096,750,"q","w","Only if I get the answer right","You win money","A fixed time limit",4,"female","keep the clicking rhythm steady","It's fun",1,0,0,0,1,2,0,1,0,0,0,0,0,1,0,1,0,0,1,0,0,1,2,2,1,2,0,0,1,2,2,1,2,1,1,2,2,1,1,0,1,2,2,0,0,2,2,3,2,3,3,3,3,4,3,2,0,1,3,3,3,3,2,"2567.7000000476837","static/images/instructions/Slide12.png","39","","","","","","","","","","","","","","","","","","",""
"","image-keyboard-response",73,408606,"0.0-3.5-0.5",67,"twenty years old","f",1665592556096,750,"q","w","Only if I get the answer right","You win money","A fixed time limit",4,"female","keep the clicking rhythm steady","It's fun",1,0,0,0,1,2,0,1,0,0,0,0,0,1,0,1,0,0,1,0,0,1,2,2,1,2,0,0,1,2,2,1,2,1,1,2,2,1,1,0,1,2,2,0,0,2,2,3,2,3,3,3,3,4,3,2,0,1,3,3,3,3,2,"7955.099999904633","static/images/instructions/Slide13.png","39","","","","","","","","","","","","","","","","","","",""
"","image-keyboard-response",74,418391,"0.0-3.6-0.6",67,"twenty years old","f",1665592556096,750,"q","w","Only if I get the answer right","You win money","A fixed time limit",4,"female","keep the clicking rhythm steady","It's fun",1,0,0,0,1,2,0,1,0,0,0,0,0,1,0,1,0,0,1,0,0,1,2,2,1,2,0,0,1,2,2,1,2,1,1,2,2,1,1,0,1,2,2,0,0,2,2,3,2,3,3,3,3,4,3,2,0,1,3,3,3,3,2,"9784.100000143051","static/images/instructions/Slide14.png","39","","","","","","","","","","","","","","","","","","",""
"","image-keyboard-response",75,426358,"0.0-3.7-0.7",67,"twenty years old","f",1665592556096,750,"q","w","Only if I get the answer right","You win money","A fixed time limit",4,"female","keep the clicking rhythm steady","It's fun",1,0,0,0,1,2,0,1,0,0,0,0,0,1,0,1,0,0,1,0,0,1,2,2,1,2,0,0,1,2,2,1,2,1,1,2,2,1,1,0,1,2,2,0,0,2,2,3,2,3,3,3,3,4,3,2,0,1,3,3,3,3,2,"7966.699999809265","static/images/instructions/Slide15.png","39","","","","","","","","","","","","","","","","","","",""
"","image-keyboard-response",76,442735,"0.0-3.8-0.8",67,"twenty years old","f",1665592556096,750,"q","w","Only if I get the answer right","You win money","A fixed time limit",4,"female","keep the clicking rhythm steady","It's fun",1,0,0,0,1,2,0,1,0,0,0,0,0,1,0,1,0,0,1,0,0,1,2,2,1,2,0,0,1,2,2,1,2,1,1,2,2,1,1,0,1,2,2,0,0,2,2,3,2,3,3,3,3,4,3,2,0,1,3,3,3,3,2,"16375.5","static/images/instructions/Slide16.png","39","","","","","","","","","","","","","","","","","","",""
"","image-keyboard-response",77,451095,"0.0-3.9-0.9",67,"twenty years old","f",1665592556096,750,"q","w","Only if I get the answer right","You win money","A fixed time limit",4,"female","keep the clicking rhythm steady","It's fun",1,0,0,0,1,2,0,1,0,0,0,0,0,1,0,1,0,0,1,0,0,1,2,2,1,2,0,0,1,2,2,1,2,1,1,2,2,1,1,0,1,2,2,0,0,2,2,3,2,3,3,3,3,4,3,2,0,1,3,3,3,3,2,"8359.400000095367","static/images/instructions/Slide17.png","39","","","","","","","","","","","","","","","","","","",""
"","survey-multi-choice",78,501806,"0.0-4.0",67,"twenty years old","f",1665592556096,750,"q","w","Only if I get the answer right","You win money","A fixed time limit",4,"female","keep the clicking rhythm steady","It's fun",1,0,0,0,1,2,0,1,0,0,0,0,0,1,0,1,0,0,1,0,0,1,2,2,1,2,0,0,1,2,2,1,2,1,1,2,2,1,1,0,1,2,2,0,0,2,2,3,2,3,3,3,3,4,3,2,0,1,3,3,3,3,2,"43754.90000009537","","","","","","","","","","","","","","{""q1"":""q"",""q2"":""w"",""q3"":""Only if I get the answer right"",""q4"":""You win money"",""q5"":""A fixed time limit""}","[4,0,3,2,1]","","","","","",""
"","image-keyboard-response",79,508990,"0.0-5.0-0.0",67,"twenty years old","f",1665592556096,750,"q","w","Only if I get the answer right","You win money","A fixed time limit",4,"female","keep the clicking rhythm steady","It's fun",1,0,0,0,1,2,0,1,0,0,0,0,0,1,0,1,0,0,1,0,0,1,2,2,1,2,0,0,1,2,2,1,2,1,1,2,2,1,1,0,1,2,2,0,0,2,2,3,2,3,3,3,3,4,3,2,0,1,3,3,3,3,2,"6622.799999952316","static/images/instructions/Slide18.png","39","","","","","","","","","","","","","","","","","","",""
"","html-keyboard-response",80,509995,"0.0-6.0-0.0-0.0",67,"twenty years old","f",1665592556096,750,"q","w","Only if I get the answer right","You win money","A fixed time limit",4,"female","keep the clicking rhythm steady","It's fun",1,0,0,0,1,2,0,1,0,0,0,0,0,1,0,1,0,0,1,0,0,1,2,2,1,2,0,0,1,2,2,1,2,1,1,2,2,1,1,0,1,2,2,0,0,2,2,3,2,3,3,3,3,4,3,2,0,1,3,3,3,3,2,"null","<div style=""font-size:75px;"">3</div>","null","","","","","","","","","","","","","","","","","","",""
"","html-keyboard-response",81,511008,"0.0-6.0-0.1-0.1",67,"twenty years old","f",1665592556096,750,"q","w","Only if I get the answer right","You win money","A fixed time limit",4,"female","keep the clicking rhythm steady","It's fun",1,0,0,0,1,2,0,1,0,0,0,0,0,1,0,1,0,0,1,0,0,1,2,2,1,2,0,0,1,2,2,1,2,1,1,2,2,1,1,0,1,2,2,0,0,2,2,3,2,3,3,3,3,4,3,2,0,1,3,3,3,3,2,"null","<div style=""font-size:75px;"">2</div>","null","","","","","","","","","","","","","","","","","","",""
"","html-keyboard-response",82,512012,"0.0-6.0-0.2-0.2",67,"twenty years old","f",1665592556096,750,"q","w","Only if I get the answer right","You win money","A fixed time limit",4,"female","keep the clicking rhythm steady","It's fun",1,0,0,0,1,2,0,1,0,0,0,0,0,1,0,1,0,0,1,0,0,1,2,2,1,2,0,0,1,2,2,1,2,1,1,2,2,1,1,0,1,2,2,0,0,2,2,3,2,3,3,3,3,4,3,2,0,1,3,3,3,3,2,"null","<div style=""font-size:75px;"">1</div>","null","","","","","","","","","","","","","","","","","","",""
"","html-keyboard-response",83,512766,"0.0-6.0-1.0-0.0",67,"twenty years old","f",1665592556096,750,"q","w","Only if I get the answer right","You win money","A fixed time limit",4,"female","keep the clicking rhythm steady","It's fun",1,0,0,0,1,2,0,1,0,0,0,0,0,1,0,1,0,0,1,0,0,1,2,2,1,2,0,0,1,2,2,1,2,1,1,2,2,1,1,0,1,2,2,0,0,2,2,3,2,3,3,3,3,4,3,2,0,1,3,3,3,3,2,"663.9000000953674","<div style=""color:green; font-size:75px;""><b>$0.02</b></div><br><br><br><br><table><tr><td><img src=static/images/oddball_up.png></td><td><img src=static/images/oddball_up.png></td><td><img src=static/images/oddball_down.png></td></tr></table>","69","1","","","","","","","","","","","","","","","","","",""
"","html-keyboard-response",84,512987.281685673,"0.0-6.0-1.0-1.0",67,"twenty years old","f",1665592556096,750,"q","w","Only if I get the answer right","You win money","A fixed time limit",4,"female","keep the clicking rhythm steady","It's fun",1,0,0,0,1,2,0,1,0,0,0,0,0,1,0,1,0,0,1,0,0,1,2,2,1,2,0,0,1,2,2,1,2,1,1,2,2,1,1,0,1,2,2,0,0,2,2,3,2,3,3,3,3,4,3,2,0,1,3,3,3,3,2,"554.18168576814","","e","","true","0","0","up","down","2","e","1","0","1665593072437.28","","","false","60","0","0","0.02","null"
"","html-keyboard-response",85,513774,"0.0-6.0-1.1-0.1",67,"twenty years old","f",1665592556096,750,"q","w","Only if I get the answer right","You win money","A fixed time limit",4,"female","keep the clicking rhythm steady","It's fun",1,0,0,0,1,2,0,1,0,0,0,0,0,1,0,1,0,0,1,0,0,1,2,2,1,2,0,0,1,2,2,1,2,1,1,2,2,1,1,0,1,2,2,0,0,2,2,3,2,3,3,3,3,4,3,2,0,1,3,3,3,3,2,"618.6000001430511","<div style=""color:green; font-size:75px;""><b>$0.02</b></div><br><br><br><br><table><tr><td><img src=static/images/oddball_up.png></td><td><img src=static/images/oddball_up.png></td><td><img src=static/images/oddball_down.png></td></tr></table>","69","1","","","","","","","","","","","","","","","","","",""
"","html-keyboard-response",86,513965.176269665,"0.0-6.0-1.1-1.1",67,"twenty years old","f",1665592556096,750,"q","w","Only if I get the answer right","You win money","A fixed time limit",4,"female","keep the clicking rhythm steady","It's fun",1,0,0,0,1,2,0,1,0,0,0,0,0,1,0,1,0,0,1,0,0,1,2,2,1,2,0,0,1,2,2,1,2,1,1,2,2,1,1,0,1,2,2,0,0,2,2,3,2,3,3,3,3,4,3,2,0,1,3,3,3,3,2,"680.776269808272","","e","","true","0","1","up","down","2","e","1","0","1665593073384.18","","","false","60","1","0.0166666666666667","0.02","false"
"","html-keyboard-response",87,514502,"0.0-6.0-1.2-0.2",67,"twenty years old","f",1665592556096,750,"q","w","Only if I get the answer right","You win money","A fixed time limit",4,"female","keep the clicking rhythm steady","It's fun",1,0,0,0,1,2,0,1,0,0,0,0,0,1,0,1,0,0,1,0,0,1,2,2,1,2,0,0,1,2,2,1,2,1,1,2,2,1,1,0,1,2,2,0,0,2,2,3,2,3,3,3,3,4,3,2,0,1,3,3,3,3,2,"571","<div style=""color:green; font-size:75px;""><b>$0.02</b></div><br><br><br><br><table><tr><td><img src=static/images/oddball_up.png></td><td><img src=static/images/oddball_down.png></td><td><img src=static/images/oddball_down.png></td></tr></table>","81","1","","","","","","","","","","","","","","","","","",""
"","html-keyboard-response",88,514639.116232908,"0.0-6.0-1.2-1.2",67,"twenty years old","f",1665592556096,750,"q","w","Only if I get the answer right","You win money","A fixed time limit",4,"female","keep the clicking rhythm steady","It's fun",1,0,0,0,1,2,0,1,0,0,0,0,0,1,0,1,0,0,1,0,0,1,2,2,1,2,0,0,1,2,2,1,2,1,1,2,2,1,1,0,1,2,2,0,0,2,2,3,2,3,3,3,3,4,3,2,0,1,3,3,3,3,2,"598.116","","q","","true","0","2","down","up","0","q","1","0","1665593074031.12","","","false","60","2","0.0333333333333333","0.02","false"
"","html-keyboard-response",89,515158,"0.0-6.0-1.3-0.3",67,"twenty years old","f",1665592556096,750,"q","w","Only if I get the answer right","You win money","A fixed time limit",4,"female","keep the clicking rhythm steady","It's fun",1,0,0,0,1,2,0,1,0,0,0,0,0,1,0,1,0,0,1,0,0,1,2,2,1,2,0,0,1,2,2,1,2,1,1,2,2,1,1,0,1,2,2,0,0,2,2,3,2,3,3,3,3,4,3,2,0,1,3,3,3,3,2,"545.0999999046326","<div style=""color:green; font-size:75px;""><b>$0.02</b></div><br><br><br><br><table><tr><td><img src=static/images/oddball_up.png></td><td><img src=static/images/oddball_up.png></td><td><img src=static/images/oddball_down.png></td></tr></table>","69","1","","","","","","","","","","","","","","","","","",""
"","html-keyboard-response",90,515138.9489167,"0.0-6.0-1.3-1.3",67,"twenty years old","f",1665592556096,750,"q","w","Only if I get the answer right","You win money","A fixed time limit",4,"female","keep the clicking rhythm steady","It's fun",1,0,0,0,1,2,0,1,0,0,0,0,0,1,0,1,0,0,1,0,0,1,2,2,1,2,0,0,1,2,2,1,2,1,1,2,2,1,1,0,1,2,2,0,0,2,2,3,2,3,3,3,3,4,3,2,0,1,3,3,3,3,2,"422.04891660462","","e","","true","0","3","up","down","2","e","1","0","1665593074530.95","","","false","60","3","0.05","0.02","false"
"","html-keyboard-response",91,516201,"0.0-6.0-1.4-0.4",67,"twenty years old","f",1665592556096,750,"q","w","Only if I get the answer right","You win money","A fixed time limit",4,"female","keep the clicking rhythm steady","It's fun",1,0,0,0,1,2,0,1,0,0,0,0,0,1,0,1,0,0,1,0,0,1,2,2,1,2,0,0,1,2,2,1,2,1,1,2,2,1,1,0,1,2,2,0,0,2,2,3,2,3,3,3,3,4,3,2,0,1,3,3,3,3,2,"471.2999999523163","<div style=""color:green; font-size:75px;""><b>$0.02</b></div><br><br><br><br><table><tr><td><img src=static/images/oddball_up.png></td><td><img src=static/images/oddball_down.png></td><td><img src=static/images/oddball_down.png></td></tr></table>","81","1","","","","","","","","","","","","","","","","","",""
"","html-keyboard-response",92,516206.915600145,"0.0-6.0-1.4-1.4",67,"twenty years old","f",1665592556096,750,"q","w","Only if I get the answer right","You win money","A fixed time limit",4,"female","keep the clicking rhythm steady","It's fun",1,0,0,0,1,2,0,1,0,0,0,0,0,1,0,1,0,0,1,0,0,1,2,2,1,2,0,0,1,2,2,1,2,1,1,2,2,1,1,0,1,2,2,0,0,2,2,3,2,3,3,3,3,4,3,2,0,1,3,3,3,3,2,"376.215600097473","","q","","true","0","4","down","up","0","q","1","0","1665593075598.92","","","false","60","4","0.0666666666666667","0.02","false"
"","html-keyboard-response",93,516710,"0.0-6.0-1.5-0.5",67,"twenty years old","f",1665592556096,750,"q","w","Only if I get the answer right","You win money","A fixed time limit",4,"female","keep the clicking rhythm steady","It's fun",1,0,0,0,1,2,0,1,0,0,0,0,0,1,0,1,0,0,1,0,0,1,2,2,1,2,0,0,1,2,2,1,2,1,1,2,2,1,1,0,1,2,2,0,0,2,2,3,2,3,3,3,3,4,3,2,0,1,3,3,3,3,2,"407.2999999523163","<div style=""color:green; font-size:75px;""><b>$0.02</b></div><br><br><br><br><table><tr><td><img src=static/images/oddball_up.png></td><td><img src=static/images/oddball_down.png></td><td><img src=static/images/oddball_down.png></td></tr></table>","81","1","","","","","","","","","","","","","","","","","",""
"","html-keyboard-response",94,516900.940301693,"0.0-6.0-1.5-1.5",67,"twenty years old","f",1665592556096,750,"q","w","Only if I get the answer right","You win money","A fixed time limit",4,"female","keep the clicking rhythm steady","It's fun",1,0,0,0,1,2,0,1,0,0,0,0,0,1,0,1,0,0,1,0,0,1,2,2,1,2,0,0,1,2,2,1,2,1,1,2,2,1,1,0,1,2,2,0,0,2,2,3,2,3,3,3,3,4,3,2,0,1,3,3,3,3,2,"493.240301645076","","q","","true","0","5","down","up","0","q","1","0","1665593076293.94","","","false","60","5","0.0833333333333333","0.02","false"
"","html-keyboard-response",95,517525,"0.0-6.0-1.6-0.6",67,"twenty years old","f",1665592556096,750,"q","w","Only if I get the answer right","You win money","A fixed time limit",4,"female","keep the clicking rhythm steady","It's fun",1,0,0,0,1,2,0,1,0,0,0,0,0,1,0,1,0,0,1,0,0,1,2,2,1,2,0,0,1,2,2,1,2,1,1,2,2,1,1,0,1,2,2,0,0,2,2,3,2,3,3,3,3,4,3,2,0,1,3,3,3,3,2,"709.2999999523163","<div style=""color:green; font-size:75px;""><b>$0.02</b></div><br><br><br><br><table><tr><td><img src=static/images/oddball_down.png></td><td><img src=static/images/oddball_up.png></td><td><img src=static/images/oddball_down.png></td></tr></table>","87","1","","","","","","","","","","","","","","","","","",""
"","html-keyboard-response",96,517543.768011268,"0.0-6.0-1.6-1.6",67,"twenty years old","f",1665592556096,750,"q","w","Only if I get the answer right","You win money","A fixed time limit",4,"female","keep the clicking rhythm steady","It's fun",1,0,0,0,1,2,0,1,0,0,0,0,0,1,0,1,0,0,1,0,0,1,2,2,1,2,0,0,1,2,2,1,2,1,1,2,2,1,1,0,1,2,2,0,0,2,2,3,2,3,3,3,3,4,3,2,0,1,3,3,3,3,2,"619.068011220355","","w","","true","0","6","down","up","1","w","1","0","1665593076935.77","","","false","60","6","0.1","0.02","false"
"","html-keyboard-response",97,518102,"0.0-6.0-1.7-0.7",67,"twenty years old","f",1665592556096,750,"q","w","Only if I get the answer right","You win money","A fixed time limit",4,"female","keep the clicking rhythm steady","It's fun",1,0,0,0,1,2,0,1,0,0,0,0,0,1,0,1,0,0,1,0,0,1,2,2,1,2,0,0,1,2,2,1,2,1,1,2,2,1,1,0,1,2,2,0,0,2,2,3,2,3,3,3,3,4,3,2,0,1,3,3,3,3,2,"467.5","<div style=""color:green; font-size:75px;""><b>$0.02</b></div><br><br><br><br><table><tr><td><img src=static/images/oddball_down.png></td><td><img src=static/images/oddball_down.png></td><td><img src=static/images/oddball_up.png></td></tr></table>","69","1","","","","","","","","","","","","","","","","","",""
"","html-keyboard-response",98,518204.87873718,"0.0-6.0-1.7-1.7",67,"twenty years old","f",1665592556096,750,"q","w","Only if I get the answer right","You win money","A fixed time limit",4,"female","keep the clicking rhythm steady","It's fun",1,0,0,0,1,2,0,1,0,0,0,0,0,1,0,1,0,0,1,0,0,1,2,2,1,2,0,0,1,2,2,1,2,1,1,2,2,1,1,0,1,2,2,0,0,2,2,3,2,3,3,3,3,4,3,2,0,1,3,3,3,3,2,"466.37874","","e","","true","0","7","down","up","2","e","1","0","1665593077596.88","","","false","60","7","0.116666666666667","0.02","false"
"","html-keyboard-response",99,518734,"0.0-6.0-1.8-0.8",67,"twenty years old","f",1665592556096,750,"q","w","Only if I get the answer right","You win money","A fixed time limit",4,"female","keep the clicking rhythm steady","It's fun",1,0,0,0,1,2,0,1,0,0,0,0,0,1,0,1,0,0,1,0,0,1,2,2,1,2,0,0,1,2,2,1,2,1,1,2,2,1,1,0,1,2,2,0,0,2,2,3,2,3,3,3,3,4,3,2,0,1,3,3,3,3,2,"527.5","<div style=""color:green; font-size:75px;""><b>$0.02</b></div><br><br><br><br><table><tr><td><img src=static/images/oddball_up.png></td><td><img src=static/images/oddball_down.png></td><td><img src=static/images/oddball_down.png></td></tr></table>","81","1","","","","","","","","","","","","","","","","","",""
"","html-keyboard-response",100,518877.011269347,"0.0-6.0-1.8-1.8",67,"twenty years old","f",1665592556096,750,"q","w","Only if I get the answer right","You win money","A fixed time limit",4,"female","keep the clicking rhythm steady","It's fun",1,0,0,0,1,2,0,1,0,0,0,0,0,1,0,1,0,0,1,0,0,1,2,2,1,2,0,0,1,2,2,1,2,1,1,2,2,1,1,0,1,2,2,0,0,2,2,3,2,3,3,3,3,4,3,2,0,1,3,3,3,3,2,"568.51127","","q","","true","0","8","down","up","0","q","1","0","1665593078269.01","","","false","60","8","0.133333333333333","0.02","false"
"","html-keyboard-response",101,519262,"0.0-6.0-1.9-0.9",67,"twenty years old","f",1665592556096,750,"q","w","Only if I get the answer right","You win money","A fixed time limit",4,"female","keep the clicking rhythm steady","It's fun",1,0,0,0,1,2,0,1,0,0,0,0,0,1,0,1,0,0,1,0,0,1,2,2,1,2,0,0,1,2,2,1,2,1,1,2,2,1,1,0,1,2,2,0,0,2,2,3,2,3,3,3,3,4,3,2,0,1,3,3,3,3,2,"425.2999999523163","<div style=""color:green; font-size:75px;""><b>$0.02</b></div><br><br><br><br><table><tr><td><img src=static/images/oddball_up.png></td><td><img src=static/images/oddball_down.png></td><td><img src=static/images/oddball_down.png></td></tr></table>","81","1","","","","","","","","","","","","","","","","","",""
"","html-keyboard-response",102,519319.778812474,"0.0-6.0-1.9-1.9",67,"twenty years old","f",1665592556096,750,"q","w","Only if I get the answer right","You win money","A fixed time limit",4,"female","keep the clicking rhythm steady","It's fun",1,0,0,0,1,2,0,1,0,0,0,0,0,1,0,1,0,0,1,0,0,1,2,2,1,2,0,0,1,2,2,1,2,1,1,2,2,1,1,0,1,2,2,0,0,2,2,3,2,3,3,3,3,4,3,2,0,1,3,3,3,3,2,"379.078812426495","","q","","true","0","9","down","up","0","q","1","0","1665593078711.78","","","false","60","9","0.15","0.02","false"
"","html-keyboard-response",103,519870,"0.0-6.0-1.10-0.10",67,"twenty years old","f",1665592556096,750,"q","w","Only if I get the answer right","You win money","A fixed time limit",4,"female","keep the clicking rhythm steady","It's fun",1,0,0,0,1,2,0,1,0,0,0,0,0,1,0,1,0,0,1,0,0,1,2,2,1,2,0,0,1,2,2,1,2,1,1,2,2,1,1,0,1,2,2,0,0,2,2,3,2,3,3,3,3,4,3,2,0,1,3,3,3,3,2,"503.59999990463257","<div style=""color:green; font-size:75px;""><b>$0.02</b></div><br><br><br><br><table><tr><td><img src=static/images/oddball_down.png></td><td><img src=static/images/oddball_up.png></td><td><img src=static/images/oddball_down.png></td></tr></table>","87","1","","","","","","","","","","","","","","","","","",""
"","html-keyboard-response",104,519936.231485787,"0.0-6.0-1.10-1.10",67,"twenty years old","f",1665592556096,750,"q","w","Only if I get the answer right","You win money","A fixed time limit",4,"female","keep the clicking rhythm steady","It's fun",1,0,0,0,1,2,0,1,0,0,0,0,0,1,0,1,0,0,1,0,0,1,2,2,1,2,0,0,1,2,2,1,2,1,1,2,2,1,1,0,1,2,2,0,0,2,2,3,2,3,3,3,3,4,3,2,0,1,3,3,3,3,2,"468.831485691639","","w","","true","0","10","down","up","1","w","1","0","1665593079328.23","","","false","60","10","0.166666666666667","0.02","false"
"","html-keyboard-response",105,520670,"0.0-6.0-1.11-0.11",67,"twenty years old","f",1665592556096,750,"q","w","Only if I get the answer right","You win money","A fixed time limit",4,"female","keep the clicking rhythm steady","It's fun",1,0,0,0,1,2,0,1,0,0,0,0,0,1,0,1,0,0,1,0,0,1,2,2,1,2,0,0,1,2,2,1,2,1,1,2,2,1,1,0,1,2,2,0,0,2,2,3,2,3,3,3,3,4,3,2,0,1,3,3,3,3,2,"697.2999999523163","<div style=""color:green; font-size:75px;""><b>$0.02</b></div><br><br><br><br><table><tr><td><img src=static/images/oddball_up.png></td><td><img src=static/images/oddball_down.png></td><td><img src=static/images/oddball_up.png></td></tr></table>","87","1","","","","","","","","","","","","","","","","","",""
"","html-keyboard-response",106,520812.555417198,"0.0-6.0-1.11-1.11",67,"twenty years old","f",1665592556096,750,"q","w","Only if I get the answer right","You win money","A fixed time limit",4,"female","keep the clicking rhythm steady","It's fun",1,0,0,0,1,2,0,1,0,0,0,0,0,1,0,1,0,0,1,0,0,1,2,2,1,2,0,0,1,2,2,1,2,1,1,2,2,1,1,0,1,2,2,0,0,2,2,3,2,3,3,3,3,4,3,2,0,1,3,3,3,3,2,"736.855417150073","","w","","true","0","11","up","down","1","w","1","0","1665593080204.56","","","false","60","11","0.183333333333333","0.02","false"
"","html-keyboard-response",107,521270,"0.0-6.0-1.12-0.12",67,"twenty years old","f",1665592556096,750,"q","w","Only if I get the answer right","You win money","A fixed time limit",4,"female","keep the clicking rhythm steady","It's fun",1,0,0,0,1,2,0,1,0,0,0,0,0,1,0,1,0,0,1,0,0,1,2,2,1,2,0,0,1,2,2,1,2,1,1,2,2,1,1,0,1,2,2,0,0,2,2,3,2,3,3,3,3,4,3,2,0,1,3,3,3,3,2,"496.7999999523163","<div style=""color:green; font-size:75px;""><b>$0.02</b></div><br><br><br><br><table><tr><td><img src=static/images/oddball_down.png></td><td><img src=static/images/oddball_down.png></td><td><img src=static/images/oddball_up.png></td></tr></table>","69","1","","","","","","","","","","","","","","","","","",""
"","html-keyboard-response",108,521488.081608584,"0.0-6.0-1.12-1.12",67,"twenty years old","f",1665592556096,750,"q","w","Only if I get the answer right","You win money","A fixed time limit",4,"female","keep the clicking rhythm steady","It's fun",1,0,0,0,1,2,0,1,0,0,0,0,0,1,0,1,0,0,1,0,0,1,2,2,1,2,0,0,1,2,2,1,2,1,1,2,2,1,1,0,1,2,2,0,0,2,2,3,2,3,3,3,3,4,3,2,0,1,3,3,3,3,2,"597.881608535886","","e","","true","0","12","down","up","2","e","1","0","1665593080880.08","","","false","60","12","0.2","0.02","false"
"","html-keyboard-response",109,521814,"0.0-6.0-1.13-0.13",67,"twenty years old","f",1665592556096,750,"q","w","Only if I get the answer right","You win money","A fixed time limit",4,"female","keep the clicking rhythm steady","It's fun",1,0,0,0,1,2,0,1,0,0,0,0,0,1,0,1,0,0,1,0,0,1,2,2,1,2,0,0,1,2,2,1,2,1,1,2,2,1,1,0,1,2,2,0,0,2,2,3,2,3,3,3,3,4,3,2,0,1,3,3,3,3,2,"425.90000009536743","<div style=""color:green; font-size:75px;""><b>$0.02</b></div><br><br><br><br><table><tr><td><img src=static/images/oddball_up.png></td><td><img src=static/images/oddball_down.png></td><td><img src=static/images/oddball_down.png></td></tr></table>","81","1","","","","","","","","","","","","","","","","","",""
"","html-keyboard-response",110,522045.047116486,"0.0-6.0-1.13-1.13",67,"twenty years old","f",1665592556096,750,"q","w","Only if I get the answer right","You win money","A fixed time limit",4,"female","keep the clicking rhythm steady","It's fun",1,0,0,0,1,2,0,1,0,0,0,0,0,1,0,1,0,0,1,0,0,1,2,2,1,2,0,0,1,2,2,1,2,1,1,2,2,1,1,0,1,2,2,0,0,2,2,3,2,3,3,3,3,4,3,2,0,1,3,3,3,3,2,"545.947116581826","","q","","true","0","13","down","up","0","q","1","0","1665593081438.05","","","false","60","13","0.216666666666667","0.02","false"
"","html-keyboard-response",111,522446,"0.0-6.0-1.14-0.14",67,"twenty years old","f",1665592556096,750,"q","w","Only if I get the answer right","You win money","A fixed time limit",4,"female","keep the clicking rhythm steady","It's fun",1,0,0,0,1,2,0,1,0,0,0,0,0,1,0,1,0,0,1,0,0,1,2,2,1,2,0,0,1,2,2,1,2,1,1,2,2,1,1,0,1,2,2,0,0,2,2,3,2,3,3,3,3,4,3,2,0,1,3,3,3,3,2,"519.6000001430511","<div style=""color:green; font-size:75px;""><b>$0.02</b></div><br><br><br><br><table><tr><td><img src=static/images/oddball_down.png></td><td><img src=static/images/oddball_up.png></td><td><img src=static/images/oddball_down.png></td></tr></table>","87","1","","","","","","","","","","","","","","","","","",""
"","html-keyboard-response",112,522482.512549249,"0.0-6.0-1.14-1.14",67,"twenty years old","f",1665592556096,750,"q","w","Only if I get the answer right","You win money","A fixed time limit",4,"female","keep the clicking rhythm steady","It's fun",1,0,0,0,1,2,0,1,0,0,0,0,0,1,0,1,0,0,1,0,0,1,2,2,1,2,0,0,1,2,2,1,2,1,1,2,2,1,1,0,1,2,2,0,0,2,2,3,2,3,3,3,3,4,3,2,0,1,3,3,3,3,2,"444.112549391975","","w","","true","0","14","down","up","1","w","1","0","1665593081874.51","","","false","60","14","0.233333333333333","0.02","false"
"","html-keyboard-response",113,522966,"0.0-6.0-1.15-0.15",67,"twenty years old","f",1665592556096,750,"q","w","Only if I get the answer right","You win money","A fixed time limit",4,"female","keep the clicking rhythm steady","It's fun",1,0,0,0,1,2,0,1,0,0,0,0,0,1,0,1,0,0,1,0,0,1,2,2,1,2,0,0,1,2,2,1,2,1,1,2,2,1,1,0,1,2,2,0,0,2,2,3,2,3,3,3,3,4,3,2,0,1,3,3,3,3,2,"406.89999985694885","<div style=""color:green; font-size:75px;""><b>$0.02</b></div><br><br><br><br><table><tr><td><img src=static/images/oddball_down.png></td><td><img src=static/images/oddball_up.png></td><td><img src=static/images/oddball_up.png></td></tr></table>","69","1","","","","","","","","","","","","","","","","","",""
"","html-keyboard-response",114,523077.972155358,"0.0-6.0-1.15-1.15",67,"twenty years old","f",1665592556096,750,"q","w","Only if I get the answer right","You win money","A fixed time limit",4,"female","keep the clicking rhythm steady","It's fun",1,0,0,0,1,2,0,1,0,0,0,0,0,1,0,1,0,0,1,0,0,1,2,2,1,2,0,0,1,2,2,1,2,1,1,2,2,1,1,0,1,2,2,0,0,2,2,3,2,3,3,3,3,4,3,2,0,1,3,3,3,3,2,"406.87215521457","","e","","true","0","15","up","down","0","q","0","0","1665593082469.97","","","false","60","15","0.25","0.02","false"
"","html-keyboard-response",115,523832,"0.0-6.0-1.16-0.16",67,"twenty years old","f",1665592556096,750,"q","w","Only if I get the answer right","You win money","A fixed time limit",4,"female","keep the clicking rhythm steady","It's fun",1,0,0,0,1,2,0,1,0,0,0,0,0,1,0,1,0,0,1,0,0,1,2,2,1,2,0,0,1,2,2,1,2,1,1,2,2,1,1,0,1,2,2,0,0,2,2,3,2,3,3,3,3,4,3,2,0,1,3,3,3,3,2,"null","<div style=""color:green; font-size:75px;""><b>$0.02</b></div><br><br><br><br><table><tr><td><img src=static/images/oddball_down.png></td><td><img src=static/images/oddball_down.png></td><td><img src=static/images/oddball_up.png></td></tr></table>","null","","","","","","","","","","","","","","","","","","",""
"","html-keyboard-response",116,524049,"0.0-6.0-1.16-1.16",67,"twenty years old","f",1665592556096,750,"q","w","Only if I get the answer right","You win money","A fixed time limit",4,"female","keep the clicking rhythm steady","It's fun",1,0,0,0,1,2,0,1,0,0,0,0,0,1,0,1,0,0,1,0,0,1,2,2,1,2,0,0,1,2,2,1,2,1,1,2,2,1,1,0,1,2,2,0,0,2,2,3,2,3,3,3,3,4,3,2,0,1,3,3,3,3,2,"null","","null","","true","0","16","down","up","2","e","0","0","1665593083441","","","false","60","16","0.25","0.02","true"
"","html-keyboard-response",117,524774,"0.0-6.0-1.17-0.17",67,"twenty years old","f",1665592556096,750,"q","w","Only if I get the answer right","You win money","A fixed time limit",4,"female","keep the clicking rhythm steady","It's fun",1,0,0,0,1,2,0,1,0,0,0,0,0,1,0,1,0,0,1,0,0,1,2,2,1,2,0,0,1,2,2,1,2,1,1,2,2,1,1,0,1,2,2,0,0,2,2,3,2,3,3,3,3,4,3,2,0,1,3,3,3,3,2,"723.7000000476837","<div style=""color:green; font-size:75px;""><b>$0.02</b></div><br><br><br><br><table><tr><td><img src=static/images/oddball_up.png></td><td><img src=static/images/oddball_down.png></td><td><img src=static/images/oddball_down.png></td></tr></table>","81","1","","","","","","","","","","","","","","","","","",""
"","html-keyboard-response",118,524900.329785163,"0.0-6.0-1.17-1.17",67,"twenty years old","f",1665592556096,750,"q","w","Only if I get the answer right","You win money","A fixed time limit",4,"female","keep the clicking rhythm steady","It's fun",1,0,0,0,1,2,0,1,0,0,0,0,0,1,0,1,0,0,1,0,0,1,2,2,1,2,0,0,1,2,2,1,2,1,1,2,2,1,1,0,1,2,2,0,0,2,2,3,2,3,3,3,3,4,3,2,0,1,3,3,3,3,2,"743.029785210732","","q","","true","0","17","down","up","0","q","1","0","1665593084292.33","","","false","60","17","0.25","0.02","false"
"","html-keyboard-response",119,525320,"0.0-6.0-1.18-0.18",67,"twenty years old","f",1665592556096,750,"q","w","Only if I get the answer right","You win money","A fixed time limit",4,"female","keep the clicking rhythm steady","It's fun",1,0,0,0,1,2,0,1,0,0,0,0,0,1,0,1,0,0,1,0,0,1,2,2,1,2,0,0,1,2,2,1,2,1,1,2,2,1,1,0,1,2,2,0,0,2,2,3,2,3,3,3,3,4,3,2,0,1,3,3,3,3,2,"412.40000009536743","<div style=""color:green; font-size:75px;""><b>$0.02</b></div><br><br><br><br><table><tr><td><img src=static/images/oddball_down.png></td><td><img src=static/images/oddball_down.png></td><td><img src=static/images/oddball_up.png></td></tr></table>","69","1","","","","","","","","","","","","","","","","","",""
"","html-keyboard-response",120,525274.269859691,"0.0-6.0-1.18-1.18",67,"twenty years old","f",1665592556096,750,"q","w","Only if I get the answer right","You win money","A fixed time limit",4,"female","keep the clicking rhythm steady","It's fun",1,0,0,0,1,2,0,1,0,0,0,0,0,1,0,1,0,0,1,0,0,1,2,2,1,2,0,0,1,2,2,1,2,1,1,2,2,1,1,0,1,2,2,0,0,2,2,3,2,3,3,3,3,4,3,2,0,1,3,3,3,3,2,"254.669859786705","","e","","true","0","18","down","up","2","e","1","0","1665593084666.27","","","false","60","18","0.266666666666667","0.02","false"
"","html-keyboard-response",121,525990,"0.0-6.0-1.19-0.19",67,"twenty years old","f",1665592556096,750,"q","w","Only if I get the answer right","You win money","A fixed time limit",4,"female","keep the clicking rhythm steady","It's fun",1,0,0,0,1,2,0,1,0,0,0,0,0,1,0,1,0,0,1,0,0,1,2,2,1,2,0,0,1,2,2,1,2,1,1,2,2,1,1,0,1,2,2,0,0,2,2,3,2,3,3,3,3,4,3,2,0,1,3,3,3,3,2,"557","<div style=""color:green; font-size:75px;""><b>$0.02</b></div><br><br><br><br><table><tr><td><img src=static/images/oddball_down.png></td><td><img src=static/images/oddball_up.png></td><td><img src=static/images/oddball_up.png></td></tr></table>","81","1","","","","","","","","","","","","","","","","","",""
"","html-keyboard-response",122,526123.342060195,"0.0-6.0-1.19-1.19",67,"twenty years old","f",1665592556096,750,"q","w","Only if I get the answer right","You win money","A fixed time limit",4,"female","keep the clicking rhythm steady","It's fun",1,0,0,0,1,2,0,1,0,0,0,0,0,1,0,1,0,0,1,0,0,1,2,2,1,2,0,0,1,2,2,1,2,1,1,2,2,1,1,0,1,2,2,0,0,2,2,3,2,3,3,3,3,4,3,2,0,1,3,3,3,3,2,"586.342","","q","","true","0","19","up","down","0","q","1","0","1665593085515.34","","","false","60","19","0.283333333333333","0.02","false"
"","html-keyboard-response",123,526581,"0.0-6.0-1.20-0.20",67,"twenty years old","f",1665592556096,750,"q","w","Only if I get the answer right","You win money","A fixed time limit",4,"female","keep the clicking rhythm steady","It's fun",1,0,0,0,1,2,0,1,0,0,0,0,0,1,0,1,0,0,1,0,0,1,2,2,1,2,0,0,1,2,2,1,2,1,1,2,2,1,1,0,1,2,2,0,0,2,2,3,2,3,3,3,3,4,3,2,0,1,3,3,3,3,2,"487.09999990463257","<div style=""color:green; font-size:75px;""><b>$0.02</b></div><br><br><br><br><table><tr><td><img src=static/images/oddball_up.png></td><td><img src=static/images/oddball_down.png></td><td><img src=static/images/oddball_up.png></td></tr></table>","87","1","","","","","","","","","","","","","","","","","",""
"","html-keyboard-response",124,526678.554221007,"0.0-6.0-1.20-1.20",67,"twenty years old","f",1665592556096,750,"q","w","Only if I get the answer right","You win money","A fixed time limit",4,"female","keep the clicking rhythm steady","It's fun",1,0,0,0,1,2,0,1,0,0,0,0,0,1,0,1,0,0,1,0,0,1,2,2,1,2,0,0,1,2,2,1,2,1,1,2,2,1,1,0,1,2,2,0,0,2,2,3,2,3,3,3,3,4,3,2,0,1,3,3,3,3,2,"481.654220912003","","w","","true","0","20","up","down","1","w","1","0","1665593086070.55","","","false","60","20","0.3","0.02","false"
"","html-keyboard-response",125,527270,"0.0-6.0-1.21-0.21",67,"twenty years old","f",1665592556096,750,"q","w","Only if I get the answer right","You win money","A fixed time limit",4,"female","keep the clicking rhythm steady","It's fun",1,0,0,0,1,2,0,1,0,0,0,0,0,1,0,1,0,0,1,0,0,1,2,2,1,2,0,0,1,2,2,1,2,1,1,2,2,1,1,0,1,2,2,0,0,2,2,3,2,3,3,3,3,4,3,2,0,1,3,3,3,3,2,"585.2000000476837","<div style=""color:green; font-size:75px;""><b>$0.02</b></div><br><br><br><br><table><tr><td><img src=static/images/oddball_up.png></td><td><img src=static/images/oddball_down.png></td><td><img src=static/images/oddball_down.png></td></tr></table>","81","1","","","","","","","","","","","","","","","","","",""
"","html-keyboard-response",126,527391.227529037,"0.0-6.0-1.21-1.21",67,"twenty years old","f",1665592556096,750,"q","w","Only if I get the answer right","You win money","A fixed time limit",4,"female","keep the clicking rhythm steady","It's fun",1,0,0,0,1,2,0,1,0,0,0,0,0,1,0,1,0,0,1,0,0,1,2,2,1,2,0,0,1,2,2,1,2,1,1,2,2,1,1,0,1,2,2,0,0,2,2,3,2,3,3,3,3,4,3,2,0,1,3,3,3,3,2,"591.42752908424","","q","","true","0","21","down","up","0","q","1","0","1665593086783.23","","","false","60","21","0.316666666666667","0.02","false"
"","html-keyboard-response",127,527822,"0.0-6.0-1.22-0.22",67,"twenty years old","f",1665592556096,750,"q","w","Only if I get the answer right","You win money","A fixed time limit",4,"female","keep the clicking rhythm steady","It's fun",1,0,0,0,1,2,0,1,0,0,0,0,0,1,0,1,0,0,1,0,0,1,2,2,1,2,0,0,1,2,2,1,2,1,1,2,2,1,1,0,1,2,2,0,0,2,2,3,2,3,3,3,3,4,3,2,0,1,3,3,3,3,2,"436.2000000476837","<div style=""color:green; font-size:75px;""><b>$0.02</b></div><br><br><br><br><table><tr><td><img src=static/images/oddball_up.png></td><td><img src=static/images/oddball_down.png></td><td><img src=static/images/oddball_down.png></td></tr></table>","81","1","","","","","","","","","","","","","","","","","",""
"","html-keyboard-response",128,528018.456284432,"0.0-6.0-1.22-1.22",67,"twenty years old","f",1665592556096,750,"q","w","Only if I get the answer right","You win money","A fixed time limit",4,"female","keep the clicking rhythm steady","It's fun",1,0,0,0,1,2,0,1,0,0,0,0,0,1,0,1,0,0,1,0,0,1,2,2,1,2,0,0,1,2,2,1,2,1,1,2,2,1,1,0,1,2,2,0,0,2,2,3,2,3,3,3,3,4,3,2,0,1,3,3,3,3,2,"517.656284479526","","q","","true","0","22","down","up","0","q","1","0","1665593087410.46","","","false","60","22","0.333333333333333","0.02","false"
"","html-keyboard-response",129,528470,"0.0-6.0-1.23-0.23",67,"twenty years old","f",1665592556096,750,"q","w","Only if I get the answer right","You win money","A fixed time limit",4,"female","keep the clicking rhythm steady","It's fun",1,0,0,0,1,2,0,1,0,0,0,0,0,1,0,1,0,0,1,0,0,1,2,2,1,2,0,0,1,2,2,1,2,1,1,2,2,1,1,0,1,2,2,0,0,2,2,3,2,3,3,3,3,4,3,2,0,1,3,3,3,3,2,"532","<div style=""color:green; font-size:75px;""><b>$0.02</b></div><br><br><br><br><table><tr><td><img src=static/images/oddball_down.png></td><td><img src=static/images/oddball_up.png></td><td><img src=static/images/oddball_down.png></td></tr></table>","87","1","","","","","","","","","","","","","","","","","",""
"","html-keyboard-response",130,528687.90152718,"0.0-6.0-1.23-1.23",67,"twenty years old","f",1665592556096,750,"q","w","Only if I get the answer right","You win money","A fixed time limit",4,"female","keep the clicking rhythm steady","It's fun",1,0,0,0,1,2,0,1,0,0,0,0,0,1,0,1,0,0,1,0,0,1,2,2,1,2,0,0,1,2,2,1,2,1,1,2,2,1,1,0,1,2,2,0,0,2,2,3,2,3,3,3,3,4,3,2,0,1,3,3,3,3,2,"647.902","","w","","true","0","23","down","up","1","w","1","0","1665593088079.9","","","false","60","23","0.35","0.02","false"
"","html-keyboard-response",131,529270,"0.0-6.0-1.24-0.24",67,"twenty years old","f",1665592556096,750,"q","w","Only if I get the answer right","You win money","A fixed time limit",4,"female","keep the clicking rhythm steady","It's fun",1,0,0,0,1,2,0,1,0,0,0,0,0,1,0,1,0,0,1,0,0,1,2,2,1,2,0,0,1,2,2,1,2,1,1,2,2,1,1,0,1,2,2,0,0,2,2,3,2,3,3,3,3,4,3,2,0,1,3,3,3,3,2,"697.2000000476837","<div style=""color:green; font-size:75px;""><b>$0.02</b></div><br><br><br><br><table><tr><td><img src=static/images/oddball_up.png></td><td><img src=static/images/oddball_up.png></td><td><img src=static/images/oddball_down.png></td></tr></table>","69","1","","","","","","","","","","","","","","","","","",""
"","html-keyboard-response",132,529416.498235565,"0.0-6.0-1.24-1.24",67,"twenty years old","f",1665592556096,750,"q","w","Only if I get the answer right","You win money","A fixed time limit",4,"female","keep the clicking rhythm steady","It's fun",1,0,0,0,1,2,0,1,0,0,0,0,0,1,0,1,0,0,1,0,0,1,2,2,1,2,0,0,1,2,2,1,2,1,1,2,2,1,1,0,1,2,2,0,0,2,2,3,2,3,3,3,3,4,3,2,0,1,3,3,3,3,2,"741.698235612598","","e","","true","0","24","up","down","2","e","1","0","1665593088808.5","","","false","60","24","0.366666666666667","0.02","false"
"","html-keyboard-response",133,530128,"0.0-6.0-1.25-0.25",67,"twenty years old","f",1665592556096,750,"q","w","Only if I get the answer right","You win money","A fixed time limit",4,"female","keep the clicking rhythm steady","It's fun",1,0,0,0,1,2,0,1,0,0,0,0,0,1,0,1,0,0,1,0,0,1,2,2,1,2,0,0,1,2,2,1,2,1,1,2,2,1,1,0,1,2,2,0,0,2,2,3,2,3,3,3,3,4,3,2,0,1,3,3,3,3,2,"null","<div style=""color:green; font-size:75px;""><b>$0.02</b></div><br><br><br><br><table><tr><td><img src=static/images/oddball_up.png></td><td><img src=static/images/oddball_down.png></td><td><img src=static/images/oddball_down.png></td></tr></table>","null","","","","","","","","","","","","","","","","","","",""
"","html-keyboard-response",134,530244,"0.0-6.0-1.25-1.25",67,"twenty years old","f",1665592556096,750,"q","w","Only if I get the answer right","You win money","A fixed time limit",4,"female","keep the clicking rhythm steady","It's fun",1,0,0,0,1,2,0,1,0,0,0,0,0,1,0,1,0,0,1,0,0,1,2,2,1,2,0,0,1,2,2,1,2,1,1,2,2,1,1,0,1,2,2,0,0,2,2,3,2,3,3,3,3,4,3,2,0,1,3,3,3,3,2,"null","","null","","true","0","25","down","up","0","q","0","0","1665593089636","","","false","60","25","0.383333333333333","0.02","true"
"","html-keyboard-response",135,530870,"0.0-6.0-1.26-0.26",67,"twenty years old","f",1665592556096,750,"q","w","Only if I get the answer right","You win money","A fixed time limit",4,"female","keep the clicking rhythm steady","It's fun",1,0,0,0,1,2,0,1,0,0,0,0,0,1,0,1,0,0,1,0,0,1,2,2,1,2,0,0,1,2,2,1,2,1,1,2,2,1,1,0,1,2,2,0,0,2,2,3,2,3,3,3,3,4,3,2,0,1,3,3,3,3,2,"624.2999999523163","<div style=""color:green; font-size:75px;""><b>$0.02</b></div><br><br><br><br><table><tr><td><img src=static/images/oddball_up.png></td><td><img src=static/images/oddball_up.png></td><td><img src=static/images/oddball_down.png></td></tr></table>","69","1","","","","","","","","","","","","","","","","","",""
"","html-keyboard-response",136,530946.917443469,"0.0-6.0-1.26-1.26",67,"twenty years old","f",1665592556096,750,"q","w","Only if I get the answer right","You win money","A fixed time limit",4,"female","keep the clicking rhythm steady","It's fun",1,0,0,0,1,2,0,1,0,0,0,0,0,1,0,1,0,0,1,0,0,1,2,2,1,2,0,0,1,2,2,1,2,1,1,2,2,1,1,0,1,2,2,0,0,2,2,3,2,3,3,3,3,4,3,2,0,1,3,3,3,3,2,"596.217443421334","","e","","true","0","26","up","down","2","e","1","0","1665593090338.92","","","false","60","26","0.383333333333333","0.02","false"
"","html-keyboard-response",137,531731,"0.0-6.0-1.27-0.27",67,"twenty years old","f",1665592556096,750,"q","w","Only if I get the answer right","You win money","A fixed time limit",4,"female","keep the clicking rhythm steady","It's fun",1,0,0,0,1,2,0,1,0,0,0,0,0,1,0,1,0,0,1,0,0,1,2,2,1,2,0,0,1,2,2,1,2,1,1,2,2,1,1,0,1,2,2,0,0,2,2,3,2,3,3,3,3,4,3,2,0,1,3,3,3,3,2,"null","<div style=""color:green; font-size:75px;""><b>$0.02</b></div><br><br><br><br><table><tr><td><img src=static/images/oddball_down.png></td><td><img src=static/images/oddball_up.png></td><td><img src=static/images/oddball_down.png></td></tr></table>","null","","","","","","","","","","","","","","","","","","",""
"","html-keyboard-response",138,531849,"0.0-6.0-1.27-1.27",67,"twenty years old","f",1665592556096,750,"q","w","Only if I get the answer right","You win money","A fixed time limit",4,"female","keep the clicking rhythm steady","It's fun",1,0,0,0,1,2,0,1,0,0,0,0,0,1,0,1,0,0,1,0,0,1,2,2,1,2,0,0,1,2,2,1,2,1,1,2,2,1,1,0,1,2,2,0,0,2,2,3,2,3,3,3,3,4,3,2,0,1,3,3,3,3,2,"null","","null","","true","0","27","down","up","1","w","0","0","1665593091241","","","false","60","27","0.4","0.02","true"
"","html-keyboard-response",139,531957,"0.0-6.0-1.28-0.28",67,"twenty years old","f",1665592556096,750,"q","w","Only if I get the answer right","You win money","A fixed time limit",4,"female","keep the clicking rhythm steady","It's fun",1,0,0,0,1,2,0,1,0,0,0,0,0,1,0,1,0,0,1,0,0,1,2,2,1,2,0,0,1,2,2,1,2,1,1,2,2,1,1,0,1,2,2,0,0,2,2,3,2,3,3,3,3,4,3,2,0,1,3,3,3,3,2,"108.29999995231628","<div style=""color:green; font-size:75px;""><b>$0.02</b></div><br><br><br><br><table><tr><td><img src=static/images/oddball_down.png></td><td><img src=static/images/oddball_up.png></td><td><img src=static/images/oddball_down.png></td></tr></table>","87","1","","","","","","","","","","","","","","","","","",""
"","html-keyboard-response",140,532072.023854987,"0.0-6.0-1.28-1.28",67,"twenty years old","f",1665592556096,750,"q","w","Only if I get the answer right","You win money","A fixed time limit",4,"female","keep the clicking rhythm steady","It's fun",1,0,0,0,1,2,0,1,0,0,0,0,0,1,0,1,0,0,1,0,0,1,2,2,1,2,0,0,1,2,2,1,2,1,1,2,2,1,1,0,1,2,2,0,0,2,2,3,2,3,3,3,3,4,3,2,0,1,3,3,3,3,2,"119.323854939579","","w","","true","0","28","down","up","1","w","1","0","1665593091464.02","","","false","60","28","0.4","0.02","false"
"","html-keyboard-response",141,532813,"0.0-6.0-1.29-0.29",67,"twenty years old","f",1665592556096,750,"q","w","Only if I get the answer right","You win money","A fixed time limit",4,"female","keep the clicking rhythm steady","It's fun",1,0,0,0,1,2,0,1,0,0,0,0,0,1,0,1,0,0,1,0,0,1,2,2,1,2,0,0,1,2,2,1,2,1,1,2,2,1,1,0,1,2,2,0,0,2,2,3,2,3,3,3,3,4,3,2,0,1,3,3,3,3,2,"751.8999998569489","<div style=""color:green; font-size:75px;""><b>$0.02</b></div><br><br><br><br><table><tr><td><img src=static/images/oddball_down.png></td><td><img src=static/images/oddball_up.png></td><td><img src=static/images/oddball_down.png></td></tr></table>","87","1","","","","","","","","","","","","","","","","","",""
"","html-keyboard-response",142,532890.483413325,"0.0-6.0-1.29-1.29",67,"twenty years old","f",1665592556096,750,"q","w","Only if I get the answer right","You win money","A fixed time limit",4,"female","keep the clicking rhythm steady","It's fun",1,0,0,0,1,2,0,1,0,0,0,0,0,1,0,1,0,0,1,0,0,1,2,2,1,2,0,0,1,2,2,1,2,1,1,2,2,1,1,0,1,2,2,0,0,2,2,3,2,3,3,3,3,4,3,2,0,1,3,3,3,3,2,"724.38341318164","","w","","true","0","29","down","up","1","w","1","0","1665593092282.48","","","false","60","29","0.416666666666667","0.02","false"
"","html-keyboard-response",143,533430,"0.0-6.0-1.30-0.30",67,"twenty years old","f",1665592556096,750,"q","w","Only if I get the answer right","You win money","A fixed time limit",4,"female","keep the clicking rhythm steady","It's fun",1,0,0,0,1,2,0,1,0,0,0,0,0,1,0,1,0,0,1,0,0,1,2,2,1,2,0,0,1,2,2,1,2,1,1,2,2,1,1,0,1,2,2,0,0,2,2,3,2,3,3,3,3,4,3,2,0,1,3,3,3,3,2,"511.2999999523163","<div style=""color:green; font-size:75px;""><b>$0.02</b></div><br><br><br><br><table><tr><td><img src=static/images/oddball_down.png></td><td><img src=static/images/oddball_down.png></td><td><img src=static/images/oddball_up.png></td></tr></table>","69","1","","","","","","","","","","","","","","","","","",""
"","html-keyboard-response",144,533483.137972878,"0.0-6.0-1.30-1.30",67,"twenty years old","f",1665592556096,750,"q","w","Only if I get the answer right","You win money","A fixed time limit",4,"female","keep the clicking rhythm steady","It's fun",1,0,0,0,1,2,0,1,0,0,0,0,0,1,0,1,0,0,1,0,0,1,2,2,1,2,0,0,1,2,2,1,2,1,1,2,2,1,1,0,1,2,2,0,0,2,2,3,2,3,3,3,3,4,3,2,0,1,3,3,3,3,2,"460.437972830623","","e","","true","0","30","down","up","2","e","1","0","1665593092875.14","","","false","60","30","0.433333333333333","0.02","false"
"","html-keyboard-response",145,533990,"0.0-6.0-1.31-0.31",67,"twenty years old","f",1665592556096,750,"q","w","Only if I get the answer right","You win money","A fixed time limit",4,"female","keep the clicking rhythm steady","It's fun",1,0,0,0,1,2,0,1,0,0,0,0,0,1,0,1,0,0,1,0,0,1,2,2,1,2,0,0,1,2,2,1,2,1,1,2,2,1,1,0,1,2,2,0,0,2,2,3,2,3,3,3,3,4,3,2,0,1,3,3,3,3,2,"455.09999990463257","<div style=""color:green; font-size:75px;""><b>$0.02</b></div><br><br><br><br><table><tr><td><img src=static/images/oddball_up.png></td><td><img src=static/images/oddball_down.png></td><td><img src=static/images/oddball_down.png></td></tr></table>","81","1","","","","","","","","","","","","","","","","","",""
"","html-keyboard-response",146,534045.997672516,"0.0-6.0-1.31-1.31",67,"twenty years old","f",1665592556096,750,"q","w","Only if I get the answer right","You win money","A fixed time limit",4,"female","keep the clicking rhythm steady","It's fun",1,0,0,0,1,2,0,1,0,0,0,0,0,1,0,1,0,0,1,0,0,1,2,2,1,2,0,0,1,2,2,1,2,1,1,2,2,1,1,0,1,2,2,0,0,2,2,3,2,3,3,3,3,4,3,2,0,1,3,3,3,3,2,"407.097672420611","","q","","true","0","31","down","up","0","q","1","0","1665593093438","","","false","60","31","0.45","0.02","false"
"","html-keyboard-response",147,534639,"0.0-6.0-1.32-0.32",67,"twenty years old","f",1665592556096,750,"q","w","Only if I get the answer right","You win money","A fixed time limit",4,"female","keep the clicking rhythm steady","It's fun",1,0,0,0,1,2,0,1,0,0,0,0,0,1,0,1,0,0,1,0,0,1,2,2,1,2,0,0,1,2,2,1,2,1,1,2,2,1,1,0,1,2,2,0,0,2,2,3,2,3,3,3,3,4,3,2,0,1,3,3,3,3,2,"544.7999999523163","<div style=""color:green; font-size:75px;""><b>$0.02</b></div><br><br><br><br><table><tr><td><img src=static/images/oddball_down.png></td><td><img src=static/images/oddball_up.png></td><td><img src=static/images/oddball_up.png></td></tr></table>","81","1","","","","","","","","","","","","","","","","","",""
"","html-keyboard-response",148,534542.088506736,"0.0-6.0-1.32-1.32",67,"twenty years old","f",1665592556096,750,"q","w","Only if I get the answer right","You win money","A fixed time limit",4,"female","keep the clicking rhythm steady","It's fun",1,0,0,0,1,2,0,1,0,0,0,0,0,1,0,1,0,0,1,0,0,1,2,2,1,2,0,0,1,2,2,1,2,1,1,2,2,1,1,0,1,2,2,0,0,2,2,3,2,3,3,3,3,4,3,2,0,1,3,3,3,3,2,"336.888506688407","","q","","true","0","32","up","down","0","q","1","0","1665593093934.09","","","false","60","32","0.466666666666667","0.02","false"
"","html-keyboard-response",149,535453,"0.0-6.0-1.33-0.33",67,"twenty years old","f",1665592556096,750,"q","w","Only if I get the answer right","You win money","A fixed time limit",4,"female","keep the clicking rhythm steady","It's fun",1,0,0,0,1,2,0,1,0,0,0,0,0,1,0,1,0,0,1,0,0,1,2,2,1,2,0,0,1,2,2,1,2,1,1,2,2,1,1,0,1,2,2,0,0,2,2,3,2,3,3,3,3,4,3,2,0,1,3,3,3,3,2,"703.2000000476837","<div style=""color:green; font-size:75px;""><b>$0.02</b></div><br><br><br><br><table><tr><td><img src=static/images/oddball_up.png></td><td><img src=static/images/oddball_down.png></td><td><img src=static/images/oddball_up.png></td></tr></table>","87","1","","","","","","","","","","","","","","","","","",""
"","html-keyboard-response",150,535555.952939878,"0.0-6.0-1.33-1.33",67,"twenty years old","f",1665592556096,750,"q","w","Only if I get the answer right","You win money","A fixed time limit",4,"female","keep the clicking rhythm steady","It's fun",1,0,0,0,1,2,0,1,0,0,0,0,0,1,0,1,0,0,1,0,0,1,2,2,1,2,0,0,1,2,2,1,2,1,1,2,2,1,1,0,1,2,2,0,0,2,2,3,2,3,3,3,3,4,3,2,0,1,3,3,3,3,2,"692.15293992518","","w","","true","0","33","up","down","1","w","1","0","1665593094947.95","","","false","60","33","0.483333333333333","0.02","false"
"","html-keyboard-response",151,536062,"0.0-6.0-1.34-0.34",67,"twenty years old","f",1665592556096,750,"q","w","Only if I get the answer right","You win money","A fixed time limit",4,"female","keep the clicking rhythm steady","It's fun",1,0,0,0,1,2,0,1,0,0,0,0,0,1,0,1,0,0,1,0,0,1,2,2,1,2,0,0,1,2,2,1,2,1,1,2,2,1,1,0,1,2,2,0,0,2,2,3,2,3,3,3,3,4,3,2,0,1,3,3,3,3,2,"494.09999990463257","<div style=""color:green; font-size:75px;""><b>$0.02</b></div><br><br><br><br><table><tr><td><img src=static/images/oddball_up.png></td><td><img src=static/images/oddball_down.png></td><td><img src=static/images/oddball_up.png></td></tr></table>","87","1","","","","","","","","","","","","","","","","","",""
"","html-keyboard-response",152,536207.043359184,"0.0-6.0-1.34-1.34",67,"twenty years old","f",1665592556096,750,"q","w","Only if I get the answer right","You win money","A fixed time limit",4,"female","keep the clicking rhythm steady","It's fun",1,0,0,0,1,2,0,1,0,0,0,0,0,1,0,1,0,0,1,0,0,1,2,2,1,2,0,0,1,2,2,1,2,1,1,2,2,1,1,0,1,2,2,0,0,2,2,3,2,3,3,3,3,4,3,2,0,1,3,3,3,3,2,"532.143359088986","","w","","true","0","34","up","down","1","w","1","0","1665593095599.04","","","false","60","34","0.5","0.02","false"
"","html-keyboard-response",153,536814,"0.0-6.0-1.35-0.35",67,"twenty years old","f",1665592556096,750,"q","w","Only if I get the answer right","You win money","A fixed time limit",4,"female","keep the clicking rhythm steady","It's fun",1,0,0,0,1,2,0,1,0,0,0,0,0,1,0,1,0,0,1,0,0,1,2,2,1,2,0,0,1,2,2,1,2,1,1,2,2,1,1,0,1,2,2,0,0,2,2,3,2,3,3,3,3,4,3,2,0,1,3,3,3,3,2,"644.1000001430511","<div style=""color:green; font-size:75px;""><b>$0.02</b></div><br><br><br><br><table><tr><td><img src=static/images/oddball_down.png></td><td><img src=static/images/oddball_down.png></td><td><img src=static/images/oddball_up.png></td></tr></table>","69","1","","","","","","","","","","","","","","","","","",""
"","html-keyboard-response",154,536976.938028306,"0.0-6.0-1.35-1.35",67,"twenty years old","f",1665592556096,750,"q","w","Only if I get the answer right","You win money","A fixed time limit",4,"female","keep the clicking rhythm steady","It's fun",1,0,0,0,1,2,0,1,0,0,0,0,0,1,0,1,0,0,1,0,0,1,2,2,1,2,0,0,1,2,2,1,2,1,1,2,2,1,1,0,1,2,2,0,0,2,2,3,2,3,3,3,3,4,3,2,0,1,3,3,3,3,2,"701.038028449447","","e","","true","0","35","down","up","2","e","1","0","1665593096368.94","","","false","60","35","0.516666666666667","0.02","false"
"","html-keyboard-response",155,537454,"0.0-6.0-1.36-0.36",67,"twenty years old","f",1665592556096,750,"q","w","Only if I get the answer right","You win money","A fixed time limit",4,"female","keep the clicking rhythm steady","It's fun",1,0,0,0,1,2,0,1,0,0,0,0,0,1,0,1,0,0,1,0,0,1,2,2,1,2,0,0,1,2,2,1,2,1,1,2,2,1,1,0,1,2,2,0,0,2,2,3,2,3,3,3,3,4,3,2,0,1,3,3,3,3,2,"533.2999999523163","<div style=""color:green; font-size:75px;""><b>$0.02</b></div><br><br><br><br><table><tr><td><img src=static/images/oddball_down.png></td><td><img src=static/images/oddball_up.png></td><td><img src=static/images/oddball_down.png></td></tr></table>","87","1","","","","","","","","","","","","","","","","","",""
"","html-keyboard-response",156,537630.619248351,"0.0-6.0-1.36-1.36",67,"twenty years old","f",1665592556096,750,"q","w","Only if I get the answer right","You win money","A fixed time limit",4,"female","keep the clicking rhythm steady","It's fun",1,0,0,0,1,2,0,1,0,0,0,0,0,1,0,1,0,0,1,0,0,1,2,2,1,2,0,0,1,2,2,1,2,1,1,2,2,1,1,0,1,2,2,0,0,2,2,3,2,3,3,3,3,4,3,2,0,1,3,3,3,3,2,"593.919248303416","","w","","true","0","36","down","up","1","w","1","0","1665593097022.62","","","false","60","36","0.533333333333333","0.02","false"
"","html-keyboard-response",157,538214,"0.0-6.0-1.37-0.37",67,"twenty years old","f",1665592556096,750,"q","w","Only if I get the answer right","You win money","A fixed time limit",4,"female","keep the clicking rhythm steady","It's fun",1,0,0,0,1,2,0,1,0,0,0,0,0,1,0,1,0,0,1,0,0,1,2,2,1,2,0,0,1,2,2,1,2,1,1,2,2,1,1,0,1,2,2,0,0,2,2,3,2,3,3,3,3,4,3,2,0,1,3,3,3,3,2,"643.5","<div style=""color:green; font-size:75px;""><b>$0.02</b></div><br><br><br><br><table><tr><td><img src=static/images/oddball_down.png></td><td><img src=static/images/oddball_up.png></td><td><img src=static/images/oddball_up.png></td></tr></table>","81","1","","","","","","","","","","","","","","","","","",""
"","html-keyboard-response",158,538213.230365863,"0.0-6.0-1.37-1.37",67,"twenty years old","f",1665592556096,750,"q","w","Only if I get the answer right","You win money","A fixed time limit",4,"female","keep the clicking rhythm steady","It's fun",1,0,0,0,1,2,0,1,0,0,0,0,0,1,0,1,0,0,1,0,0,1,2,2,1,2,0,0,1,2,2,1,2,1,1,2,2,1,1,0,1,2,2,0,0,2,2,3,2,3,3,3,3,4,3,2,0,1,3,3,3,3,2,"533.73037","","q","","true","0","37","up","down","0","q","0","0","1665593097605.23","","","false","60","37","0.55","0.02","false"
"","html-keyboard-response",159,539079,"0.0-6.0-1.38-0.38",67,"twenty years old","f",1665592556096,750,"q","w","Only if I get the answer right","You win money","A fixed time limit",4,"female","keep the clicking rhythm steady","It's fun",1,0,0,0,1,2,0,1,0,0,0,0,0,1,0,1,0,0,1,0,0,1,2,2,1,2,0,0,1,2,2,1,2,1,1,2,2,1,1,0,1,2,2,0,0,2,2,3,2,3,3,3,3,4,3,2,0,1,3,3,3,3,2,"null","<div style=""color:green; font-size:75px;""><b>$0.02</b></div><br><br><br><br><table><tr><td><img src=static/images/oddball_down.png></td><td><img src=static/images/oddball_up.png></td><td><img src=static/images/oddball_down.png></td></tr></table>","null","","","","","","","","","","","","","","","","","","",""
"","html-keyboard-response",160,539196,"0.0-6.0-1.38-1.38",67,"twenty years old","f",1665592556096,750,"q","w","Only if I get the answer right","You win money","A fixed time limit",4,"female","keep the clicking rhythm steady","It's fun",1,0,0,0,1,2,0,1,0,0,0,0,0,1,0,1,0,0,1,0,0,1,2,2,1,2,0,0,1,2,2,1,2,1,1,2,2,1,1,0,1,2,2,0,0,2,2,3,2,3,3,3,3,4,3,2,0,1,3,3,3,3,2,"null","","null","","true","0","38","down","up","1","w","0","0","1665593098588","","","false","60","38","0.566666666666667","0.02","true"
"","html-keyboard-response",161,539948,"0.0-6.0-1.39-0.39",67,"twenty years old","f",1665592556096,750,"q","w","Only if I get the answer right","You win money","A fixed time limit",4,"female","keep the clicking rhythm steady","It's fun",1,0,0,0,1,2,0,1,0,0,0,0,0,1,0,1,0,0,1,0,0,1,2,2,1,2,0,0,1,2,2,1,2,1,1,2,2,1,1,0,1,2,2,0,0,2,2,3,2,3,3,3,3,4,3,2,0,1,3,3,3,3,2,"null","<div style=""color:green; font-size:75px;""><b>$0.02</b></div><br><br><br><br><table><tr><td><img src=static/images/oddball_down.png></td><td><img src=static/images/oddball_up.png></td><td><img src=static/images/oddball_down.png></td></tr></table>","null","","","","","","","","","","","","","","","","","","",""
"","html-keyboard-response",162,540065,"0.0-6.0-1.39-1.39",67,"twenty years old","f",1665592556096,750,"q","w","Only if I get the answer right","You win money","A fixed time limit",4,"female","keep the clicking rhythm steady","It's fun",1,0,0,0,1,2,0,1,0,0,0,0,0,1,0,1,0,0,1,0,0,1,2,2,1,2,0,0,1,2,2,1,2,1,1,2,2,1,1,0,1,2,2,0,0,2,2,3,2,3,3,3,3,4,3,2,0,1,3,3,3,3,2,"null","","null","","true","0","39","down","up","1","w","0","0","1665593099457","","","false","60","39","0.566666666666667","0.02","true"
"","html-keyboard-response",163,540502,"0.0-6.0-1.40-0.40",67,"twenty years old","f",1665592556096,750,"q","w","Only if I get the answer right","You win money","A fixed time limit",4,"female","keep the clicking rhythm steady","It's fun",1,0,0,0,1,2,0,1,0,0,0,0,0,1,0,1,0,0,1,0,0,1,2,2,1,2,0,0,1,2,2,1,2,1,1,2,2,1,1,0,1,2,2,0,0,2,2,3,2,3,3,3,3,4,3,2,0,1,3,3,3,3,2,"436.5","<div style=""color:green; font-size:75px;""><b>$0.02</b></div><br><br><br><br><table><tr><td><img src=static/images/oddball_up.png></td><td><img src=static/images/oddball_up.png></td><td><img src=static/images/oddball_down.png></td></tr></table>","69","1","","","","","","","","","","","","","","","","","",""
"","html-keyboard-response",164,540759.841861151,"0.0-6.0-1.40-1.40",67,"twenty years old","f",1665592556096,750,"q","w","Only if I get the answer right","You win money","A fixed time limit",4,"female","keep the clicking rhythm steady","It's fun",1,0,0,0,1,2,0,1,0,0,0,0,0,1,0,1,0,0,1,0,0,1,2,2,1,2,0,0,1,2,2,1,2,1,1,2,2,1,1,0,1,2,2,0,0,2,2,3,2,3,3,3,3,4,3,2,0,1,3,3,3,3,2,"585.34186","","e","","true","0","40","up","down","2","e","1","0","1665593100151.84","","","false","60","40","0.566666666666667","0.02","false"
"","html-keyboard-response",165,541133,"0.0-6.0-1.41-0.41",67,"twenty years old","f",1665592556096,750,"q","w","Only if I get the answer right","You win money","A fixed time limit",4,"female","keep the clicking rhythm steady","It's fun",1,0,0,0,1,2,0,1,0,0,0,0,0,1,0,1,0,0,1,0,0,1,2,2,1,2,0,0,1,2,2,1,2,1,1,2,2,1,1,0,1,2,2,0,0,2,2,3,2,3,3,3,3,4,3,2,0,1,3,3,3,3,2,"522","<div style=""color:green; font-size:75px;""><b>$0.02</b></div><br><br><br><br><table><tr><td><img src=static/images/oddball_up.png></td><td><img src=static/images/oddball_down.png></td><td><img src=static/images/oddball_down.png></td></tr></table>","81","1","","","","","","","","","","","","","","","","","",""
"","html-keyboard-response",166,541328.341416304,"0.0-6.0-1.41-1.41",67,"twenty years old","f",1665592556096,750,"q","w","Only if I get the answer right","You win money","A fixed time limit",4,"female","keep the clicking rhythm steady","It's fun",1,0,0,0,1,2,0,1,0,0,0,0,0,1,0,1,0,0,1,0,0,1,2,2,1,2,0,0,1,2,2,1,2,1,1,2,2,1,1,0,1,2,2,0,0,2,2,3,2,3,3,3,3,4,3,2,0,1,3,3,3,3,2,"605.341","","q","","true","0","41","down","up","0","q","0","0","1665593100720.34","","","false","60","41","0.583333333333333","0.02","false"
"","html-keyboard-response",167,542000,"0.0-6.0-1.42-0.42",67,"twenty years old","f",1665592556096,750,"q","w","Only if I get the answer right","You win money","A fixed time limit",4,"female","keep the clicking rhythm steady","It's fun",1,0,0,0,1,2,0,1,0,0,0,0,0,1,0,1,0,0,1,0,0,1,2,2,1,2,0,0,1,2,2,1,2,1,1,2,2,1,1,0,1,2,2,0,0,2,2,3,2,3,3,3,3,4,3,2,0,1,3,3,3,3,2,"null","<div style=""color:green; font-size:75px;""><b>$0.02</b></div><br><br><br><br><table><tr><td><img src=static/images/oddball_up.png></td><td><img src=static/images/oddball_down.png></td><td><img src=static/images/oddball_up.png></td></tr></table>","null","","","","","","","","","","","","","","","","","","",""
"","html-keyboard-response",168,542118,"0.0-6.0-1.42-1.42",67,"twenty years old","f",1665592556096,750,"q","w","Only if I get the answer right","You win money","A fixed time limit",4,"female","keep the clicking rhythm steady","It's fun",1,0,0,0,1,2,0,1,0,0,0,0,0,1,0,1,0,0,1,0,0,1,2,2,1,2,0,0,1,2,2,1,2,1,1,2,2,1,1,0,1,2,2,0,0,2,2,3,2,3,3,3,3,4,3,2,0,1,3,3,3,3,2,"null","","null","","true","0","42","up","down","1","w","0","0","1665593101510","","","false","60","42","0.6","0.02","true"
"","html-keyboard-response",169,542750,"0.0-6.0-1.43-0.43",67,"twenty years old","f",1665592556096,750,"q","w","Only if I get the answer right","You win money","A fixed time limit",4,"female","keep the clicking rhythm steady","It's fun",1,0,0,0,1,2,0,1,0,0,0,0,0,1,0,1,0,0,1,0,0,1,2,2,1,2,0,0,1,2,2,1,2,1,1,2,2,1,1,0,1,2,2,0,0,2,2,3,2,3,3,3,3,4,3,2,0,1,3,3,3,3,2,"631.5999999046326","<div style=""color:green; font-size:75px;""><b>$0.02</b></div><br><br><br><br><table><tr><td><img src=static/images/oddball_down.png></td><td><img src=static/images/oddball_down.png></td><td><img src=static/images/oddball_up.png></td></tr></table>","69","1","","","","","","","","","","","","","","","","","",""
"","html-keyboard-response",170,542894.124231706,"0.0-6.0-1.43-1.43",67,"twenty years old","f",1665592556096,750,"q","w","Only if I get the answer right","You win money","A fixed time limit",4,"female","keep the clicking rhythm steady","It's fun",1,0,0,0,1,2,0,1,0,0,0,0,0,1,0,1,0,0,1,0,0,1,2,2,1,2,0,0,1,2,2,1,2,1,1,2,2,1,1,0,1,2,2,0,0,2,2,3,2,3,3,3,3,4,3,2,0,1,3,3,3,3,2,"660.724231611077","","e","","true","0","43","down","up","2","e","1","0","1665593102287.12","","","false","60","43","0.6","0.02","false"
"","html-keyboard-response",171,543222,"0.0-6.0-1.44-0.44",67,"twenty years old","f",1665592556096,750,"q","w","Only if I get the answer right","You win money","A fixed time limit",4,"female","keep the clicking rhythm steady","It's fun",1,0,0,0,1,2,0,1,0,0,0,0,0,1,0,1,0,0,1,0,0,1,2,2,1,2,0,0,1,2,2,1,2,1,1,2,2,1,1,0,1,2,2,0,0,2,2,3,2,3,3,3,3,4,3,2,0,1,3,3,3,3,2,"355.5","<div style=""color:green; font-size:75px;""><b>$0.02</b></div><br><br><br><br><table><tr><td><img src=static/images/oddball_up.png></td><td><img src=static/images/oddball_down.png></td><td><img src=static/images/oddball_down.png></td></tr></table>","81","1","","","","","","","","","","","","","","","","","",""
"","html-keyboard-response",172,543433.80914302,"0.0-6.0-1.44-1.44",67,"twenty years old","f",1665592556096,750,"q","w","Only if I get the answer right","You win money","A fixed time limit",4,"female","keep the clicking rhythm steady","It's fun",1,0,0,0,1,2,0,1,0,0,0,0,0,1,0,1,0,0,1,0,0,1,2,2,1,2,0,0,1,2,2,1,2,1,1,2,2,1,1,0,1,2,2,0,0,2,2,3,2,3,3,3,3,4,3,2,0,1,3,3,3,3,2,"457.30914","","q","","true","0","44","down","up","0","q","1","0","1665593102825.81","","","false","60","44","0.616666666666667","0.02","false"
"","html-keyboard-response",173,543750,"0.0-6.0-1.45-0.45",67,"twenty years old","f",1665592556096,750,"q","w","Only if I get the answer right","You win money","A fixed time limit",4,"female","keep the clicking rhythm steady","It's fun",1,0,0,0,1,2,0,1,0,0,0,0,0,1,0,1,0,0,1,0,0,1,2,2,1,2,0,0,1,2,2,1,2,1,1,2,2,1,1,0,1,2,2,0,0,2,2,3,2,3,3,3,3,4,3,2,0,1,3,3,3,3,2,"417.2000000476837","<div style=""color:green; font-size:75px;""><b>$0.02</b></div><br><br><br><br><table><tr><td><img src=static/images/oddball_up.png></td><td><img src=static/images/oddball_down.png></td><td><img src=static/images/oddball_down.png></td></tr></table>","81","1","","","","","","","","","","","","","","","","","",""
"","html-keyboard-response",174,543811.829388925,"0.0-6.0-1.45-1.45",67,"twenty years old","f",1665592556096,750,"q","w","Only if I get the answer right","You win money","A fixed time limit",4,"female","keep the clicking rhythm steady","It's fun",1,0,0,0,1,2,0,1,0,0,0,0,0,1,0,1,0,0,1,0,0,1,2,2,1,2,0,0,1,2,2,1,2,1,1,2,2,1,1,0,1,2,2,0,0,2,2,3,2,3,3,3,3,4,3,2,0,1,3,3,3,3,2,"364.029388972631","","q","","true","0","45","down","up","0","q","1","0","1665593103203.83","","","false","60","45","0.633333333333333","0.02","false"
"","html-keyboard-response",175,544221,"0.0-6.0-1.46-0.46",67,"twenty years old","f",1665592556096,750,"q","w","Only if I get the answer right","You win money","A fixed time limit",4,"female","keep the clicking rhythm steady","It's fun",1,0,0,0,1,2,0,1,0,0,0,0,0,1,0,1,0,0,1,0,0,1,2,2,1,2,0,0,1,2,2,1,2,1,1,2,2,1,1,0,1,2,2,0,0,2,2,3,2,3,3,3,3,4,3,2,0,1,3,3,3,3,2,"355.7999999523163","<div style=""color:green; font-size:75px;""><b>$0.02</b></div><br><br><br><br><table><tr><td><img src=static/images/oddball_down.png></td><td><img src=static/images/oddball_up.png></td><td><img src=static/images/oddball_down.png></td></tr></table>","87","1","","","","","","","","","","","","","","","","","",""
